iterationName,wID,aID,sentence,response,rt,prob,sent_length,prob_class,source,phase,step,sentence_num,id,group_id,stimulus_type,trial_type,trial_index,time_elapsed,normed_response
prolific-pilot0,5dabbe0ead1260001162bc7f,60b007a6a9c40f3804307214,Nathan and Giuliani formed an ongoing relationship.,100,8287.41000010632,-20.66905212402344,short,high,wiki,wiki,0,19,0_0,17,main_judgement,html-slider-response,5,111569,0.6339622243407982
prolific-pilot0,5dabbe0ead1260001162bc7f,60b007a6a9c40f3804307214,"It is used to house inmates arrested in their patrol area, with the exception of misdemeanors committed in the city of Las Vegas, which maintains its own jail.",84,17958.474999992177,-38.518387,long,high,bert,early,0,6,0_0,17,main_judgement,html-slider-response,6,129529,0.7231077516361997
prolific-pilot0,5dabbe0ead1260001162bc7f,60b007a6a9c40f3804307214,"However, itinerant British foreign policy such as Winston Churchill courted intoxicated nationalist separatists on the more impersonal (occasionally subversive) side.",34,21312.48000008054,-17.025438,long,high,bert,late,69859,6,0_1995,17,main_judgement,html-slider-response,7,150842,-1.0405696913789215
prolific-pilot0,5dabbe0ead1260001162bc7f,60b007a6a9c40f3804307214,"1937's magic workshop is also a brewer of over 3000 annexes of laws and magical codes, the process by which magic is theoretically unchallenged before recording.",66,22168.86999993585,-87.675735,long,low,bert,early,128,4,0_3,17,main_judgement,html-slider-response,8,173012,0.08818387215075606
prolific-pilot0,5dabbe0ead1260001162bc7f,60b007a6a9c40f3804307214,Since then Kingwood park has been used indecently in the premiere of the Dirty Dozen.,100,9569.580000126734,-26.970444,medium,high,bert,late,37923,6,9_1995,17,main_judgement,html-slider-response,9,182583,1.266899649625897
prolific-pilot0,5dabbe0ead1260001162bc7f,60b007a6a9c40f3804307214,Lake Superior has fewer dissolved nutrients compared to its water volume than the other great lakes and so is less productive in terms of fish populations and thus an oligotrophic lake.,99,19391.264999983832,-36.93097,long,high,bert,early,1,7,2_0,17,main_judgement,html-slider-response,10,201975,1.252210984540736
prolific-pilot0,5dabbe0ead1260001162bc7f,60b007a6a9c40f3804307214,"Hurricane Fabian shut down many fruit and vegetable crops in economic business neighborhoods, particularly artesian wells.",90,8709.484999999404,-47.112328,medium,high,bert,early,256,5,6_13,17,main_judgement,html-slider-response,12,222600,0.3830161731427128
prolific-pilot0,5dabbe0ead1260001162bc7f,60b007a6a9c40f3804307214,Asparagine usually enters the citric acid cycle in humans as oxaloacetate.,79,9037.705000024289,-9.5416565,medium,high,bert,early,2,8,1_0,17,main_judgement,html-slider-response,13,231639,-0.58925565098879
prolific-pilot0,5dabbe0ead1260001162bc7f,60b007a6a9c40f3804307214,"Breaux opened two American-style studios in San Francisco in 1870, complementing one another.",99,7753.365000011399,-26.889185,medium,low,bert,early,128,0,6_6,17,main_judgement,html-slider-response,14,239393,1.1785113019775788
prolific-pilot0,5dabbe0ead1260001162bc7f,60b007a6a9c40f3804307214,Get all your money out and get me fed.,21,6828.254999825731,-21.569355,short,high,bert,late,14009,9,2_1400,17,main_judgement,html-slider-response,15,246222,-1.4242439012587798
prolific-pilot0,5dabbe0ead1260001162bc7f,60b007a6a9c40f3804307214,"Millwall Carlisle Rangers Maine Road Wedgwood St Johnstone Brechin City boardman joined Leyton Orient from Meadowbank for an undisclosed fee, subsequently leaving after one year.",33,29160.984999965876,-31.963766,long,low,bert,late,52359,4,2_1495,17,main_judgement,html-slider-response,16,275384,-1.075843240239224
prolific-pilot0,5dabbe0ead1260001162bc7f,60b007a6a9c40f3804307214,Having a cleft palate/lip does not inevitably lead to a psychosocial problem.,94,9738.730000099167,-20.01488494873047,medium,high,wiki,wiki,0,40,0_0,17,main_judgement,html-slider-response,17,285124,0.7365695637359866
prolific-pilot0,5dabbe0ead1260001162bc7f,60b007a6a9c40f3804307214,"As suggested by the name of their competitions, the primary metrics used for the formula teams are design, acceleration and lap time with cost and business presentation as other important events.",89,13200.895000016317,-109.95135,long,low,bert,early,0,2,0_0,17,main_judgement,html-slider-response,18,298326,0.8994754959377118
prolific-pilot0,5dabbe0ead1260001162bc7f,60b007a6a9c40f3804307214,It is found in Central America and North America.,100,6216.0499999299645,-0.0069783507,short,low,bert,late,19959,3,2_1995,17,main_judgement,html-slider-response,19,304543,0.6339622243407982
prolific-pilot0,5dabbe0ead1260001162bc7f,60b007a6a9c40f3804307214,It is one of three districts in the sector.,99,6308.05499991402,-19.84250259399414,short,high,wiki,wiki,0,15,0_0,17,main_judgement,html-slider-response,20,310852,0.607908982244601
prolific-pilot0,5dabbe0ead1260001162bc7f,60b007a6a9c40f3804307214,Only 22 other individuals controlled the board of directors.,88,9616.544999880716,-19.563494,short,high,bert,early,128,6,8_12,17,main_judgement,html-slider-response,22,331894,0.32132331918643187
prolific-pilot0,5dabbe0ead1260001162bc7f,60b007a6a9c40f3804307214,Aliya Rose's mother is Joy Rose.,100,6978.995000012219,-20.101353,short,low,bert,early,2,2,6_0,17,main_judgement,html-slider-response,23,338874,0.6339622243407982
prolific-pilot0,5dabbe0ead1260001162bc7f,60b007a6a9c40f3804307214,"Salisbury's great contribution was usually his painting of over forty large canvases of historical and contemporary events, a field in which he was virtually unchallenged until 1951.",76,17689.87499992363,-99.871216,long,low,bert,early,2,4,1_0,17,main_judgement,html-slider-response,24,356565,0.4409193607537803
prolific-pilot0,5dabbe0ead1260001162bc7f,60b007a6a9c40f3804307214,"Her biggest hit of 2005 or 2006 at Interscope was the 1983 hit ""jazz vincennes"", and she has also worked with crossovers, notably Dolly Parton.",27,22034.394999966025,-40.794968,long,low,bert,late,34859,1,3_995,17,main_judgement,html-slider-response,25,378600,-1.2874845334010385
prolific-pilot0,5dabbe0ead1260001162bc7f,60b007a6a9c40f3804307214,"He smiled, and it surprised me a little.",73,6394.7699998971075,-4.1052246,short,high,bert,early,512,5,2_51,17,main_judgement,html-slider-response,26,384996,-0.06947531225652596
prolific-pilot0,5dabbe0ead1260001162bc7f,60b007a6a9c40f3804307214,"He has also commented on scuba diving, and has been quoted about it in many later interviews.",87,9684.020000044256,-17.479568,medium,high,bert,early,128,9,9_6,17,main_judgement,html-slider-response,27,394681,0.11785113019775749
prolific-pilot0,5dabbe0ead1260001162bc7f,60b007a6a9c40f3804307214,Orwell fell seriously ill in March 1929 and shortly afterwards had money stolen from the lodging house.,66,10938.899999950081,-32.30157470703125,medium,high,wiki,wiki,0,3,0_0,17,main_judgement,html-slider-response,28,405620,-1.7383041704169295
prolific-pilot0,5dabbe0ead1260001162bc7f,60b007a6a9c40f3804307214,"""Krelis,"" she managed to croak out, her voice barely audible.",77,6048.2050001155585,-0.24828081,medium,high,bert,late,37923,6,0_1995,17,main_judgement,html-slider-response,29,411670,-0.7660323462854268
prolific-pilot0,5dabbe0ead1260001162bc7f,60b007a6a9c40f3804307214,Many experienced climbers climb the mountain every year.,100,5312.9799999296665,-6.64554,short,high,bert,early,64,6,7_6,17,main_judgement,html-slider-response,30,416984,0.6339622243407982
prolific-pilot0,5dabbe0ead1260001162bc7f,60b007a6a9c40f3804307214,"In 921, the monastic brotherhood founded the Ruskin gothic church in Torgau, Hungary.",79,8693.869999842718,-52.531536,medium,low,bert,late,28328,4,3_1490,17,main_judgement,html-slider-response,31,425678,-0.58925565098879
prolific-pilot0,5dabbe0ead1260001162bc7f,60b007a6a9c40f3804307214,This planet contains the only stars in the sky.,0,10477.294999873266,-12.99567,short,low,bert,early,64,3,1_6,17,main_judgement,html-slider-response,32,436157,-1.9713619852789208
prolific-pilot0,5eba5a3aa616f80119f6ef40,60b0093eadcf51c681c91fcf,"Giffard is married to Kathleen Bowden, a veterinarian and parasitologist.",92,8755.5,-9.383748,medium,low,bert,late,37923,0,1_1995,19,main_judgement,html-slider-response,5,105121,2.008019021919075
prolific-pilot0,5eba5a3aa616f80119f6ef40,60b0093eadcf51c681c91fcf,His chorus identity is even named Quaxo.,26,7541.5,-50.097836,short,low,bert,early,1,0,9_0,19,main_judgement,html-slider-response,6,112664,-1.3992623022292034
prolific-pilot0,5eba5a3aa616f80119f6ef40,60b0093eadcf51c681c91fcf,B1 - Chhaya Chhaya B2 - Chhaya Chhaya C3 - Chhaya C4 is made by irradiation (fusing) of G cells.,79,6113,-20.736956,long,low,bert,late,69684,2,7_1990,19,main_judgement,html-slider-response,7,118778,0.3809301699281979
prolific-pilot0,5eba5a3aa616f80119f6ef40,60b0093eadcf51c681c91fcf,"Beginning in 1904, the Deering Coal Mine Company took Franklin County and West Frankfort from no coal production in 1900 to being the #1 coal producer in Illinois by 1917.",77,10869.19999999553,-63.546234130859375,long,high,wiki,wiki,0,46,0_0,19,main_judgement,html-slider-response,9,134758,0.30474413594255834
prolific-pilot0,5eba5a3aa616f80119f6ef40,60b0093eadcf51c681c91fcf,He is also one of the few outsiders of the Pakistani gender political system on a theoretical level.,73,8992.5,-46.798492,medium,low,bert,early,16,4,2_0,19,main_judgement,html-slider-response,10,143752,-0.39317854974639277
prolific-pilot0,5eba5a3aa616f80119f6ef40,60b0093eadcf51c681c91fcf,"It was later occupied by a senior citizens apartment complex, then declared a heritage building in 1982 and redeveloped as an office building by its owner, the Burns Lake Native Development Corporation.",87,10888.5,-58.1245231628418,long,high,wiki,wiki,0,35,0_0,19,main_judgement,html-slider-response,11,154642,0.6856743058707562
prolific-pilot0,5eba5a3aa616f80119f6ef40,60b0093eadcf51c681c91fcf,"It is free to designate individuals involved in the patrol system, with the exception of misdemeanors committed by the city of Las Vegas, which has its own representatives.",61,10665.80000000447,-36.607304,long,high,bert,early,32,6,6_0,19,main_judgement,html-slider-response,12,165309,-0.30474413594255834
prolific-pilot0,5eba5a3aa616f80119f6ef40,60b0093eadcf51c681c91fcf,"Realizing I could get through a mono show, I decided to use the whole motion capture mode.",72,6088.79999999702,-49.48304,medium,high,bert,late,27663,6,5_1455,19,main_judgement,html-slider-response,13,171399,-0.5195573693077331
prolific-pilot0,5eba5a3aa616f80119f6ef40,60b0093eadcf51c681c91fcf,"1,250 people are employed in the secondary sector and there are 332 businesses in this sector.",83,6029,-13.647263,medium,high,bert,early,8,7,3_0,19,main_judgement,html-slider-response,14,177429,0.8706096458670113
prolific-pilot0,5eba5a3aa616f80119f6ef40,60b0093eadcf51c681c91fcf,"The specific epithet is derived from Ancient Greek ' ""whole"" and ' ""silken"".",74,12920.69999999553,-24.110557556152344,medium,high,wiki,wiki,0,34,0_0,19,main_judgement,html-slider-response,15,190351,-0.2667997301850524
prolific-pilot0,5eba5a3aa616f80119f6ef40,60b0093eadcf51c681c91fcf,"She clutched my wet hair, and we kissed.",81,4177.69999999553,-9.711538,short,high,bert,late,19959,5,6_1995,19,main_judgement,html-slider-response,16,194530,1.00571977972724
prolific-pilot0,5eba5a3aa616f80119f6ef40,60b0093eadcf51c681c91fcf,A delivery girl with a Ted-friendly takeoff.,74,5208.89999999851,-44.164436,short,high,bert,late,14959,8,5_1495,19,main_judgement,html-slider-response,17,199740,0.6996311511146017
prolific-pilot0,5eba5a3aa616f80119f6ef40,60b0093eadcf51c681c91fcf,"During a meeting to discuss the screenplay, Ray Bradbury informed John Huston that regarding Melville's novel, he had ""never been able to read the damned thing"".",65,14414.80000000447,-35.39849853515625,long,high,wiki,wiki,0,48,0_0,19,main_judgement,html-slider-response,18,214155,-0.15237206797127917
prolific-pilot0,5eba5a3aa616f80119f6ef40,60b0093eadcf51c681c91fcf,The cover story on the firebombs exclaimed.,29,4487.80000000447,-22.512587,short,high,bert,late,14959,5,7_1495,19,main_judgement,html-slider-response,19,218644,-1.2680814613952156
prolific-pilot0,5eba5a3aa616f80119f6ef40,60b0093eadcf51c681c91fcf,Then Kevin would figure she'd be relaxed and had had more fun than she should have.,65,6170.5,-35.52574,medium,low,bert,late,37828,1,2_1990,19,main_judgement,html-slider-response,20,224816,-1.404209106237116
prolific-pilot0,5eba5a3aa616f80119f6ef40,60b0093eadcf51c681c91fcf,"""Couple pricks"" was released as a separate single, ""nothin' but love"".",77,5377.79999999702,-30.670435,medium,low,bert,late,37923,4,9_1995,19,main_judgement,html-slider-response,21,230195,0.11233672849896885
prolific-pilot0,5eba5a3aa616f80119f6ef40,60b0093eadcf51c681c91fcf,I was going to throw on some clothes later.,72,15945.59999999404,-5.3169127,short,low,bert,late,9959,2,4_995,19,main_judgement,html-slider-response,23,250434,0.6121772572252765
prolific-pilot0,5eba5a3aa616f80119f6ef40,60b0093eadcf51c681c91fcf,Hit send again and reached for the stop light.,31,4692.80000000447,-17.081772,short,low,bert,late,14959,1,4_1495,19,main_judgement,html-slider-response,24,255128,-1.1806275675058904
prolific-pilot0,5eba5a3aa616f80119f6ef40,60b0093eadcf51c681c91fcf,This company purchased all the gold-bearing lands in the valley and began drilling artesian wells.,70,9508.90000000596,-16.138569,medium,high,bert,early,0,5,2_0,19,main_judgement,html-slider-response,25,264638,-0.7723150084304139
prolific-pilot0,5eba5a3aa616f80119f6ef40,60b0093eadcf51c681c91fcf,"Honored by the Japanese Olympic Committee, Tan came fourth in the 2004 summer olympics in Sendai-Ku, Japan, and has won two Olympic swimming titles in swimming and diving.",85,10918.60000000149,-39.05242,long,low,bert,late,52009,0,1_1485,19,main_judgement,html-slider-response,26,275558,0.6094882718851167
prolific-pilot0,5eba5a3aa616f80119f6ef40,60b0093eadcf51c681c91fcf,But I've never seen Catherine wear that.,81,3057.8000000044703,-26.56792,short,low,bert,late,9959,2,1_995,19,main_judgement,html-slider-response,27,278617,1.00571977972724
prolific-pilot0,5eba5a3aa616f80119f6ef40,60b0093eadcf51c681c91fcf,It is affiliated to Vidyasagar University.,62,3112,-0.3252060711383819,short,high,wiki,wiki,0,7,0_0,19,main_judgement,html-slider-response,28,281730,0.17490778777865043
prolific-pilot0,5eba5a3aa616f80119f6ef40,60b0093eadcf51c681c91fcf,"Glutamine and Glutamate, during acid build-up, undergo progressive thermogenetic degeneration mediated by hydrogen sulfide and triphosphate.",89,18030.89999999851,-15.026737,long,low,bert,late,48684,2,5_1390,19,main_judgement,html-slider-response,29,299762,0.7618603398563958
prolific-pilot0,5eba5a3aa616f80119f6ef40,60b0093eadcf51c681c91fcf,"""Hmmm, but I did sleep when I was a kid!"" ""bam bam bam bam!"" her green eyes quizzed him, asking him a million questions.",9,11279.19999999553,-21.113817,long,high,bert,late,59709,9,3_1705,19,main_judgement,html-slider-response,30,311043,-2.2855810195691872
prolific-pilot0,5eba5a3aa616f80119f6ef40,60b0093eadcf51c681c91fcf,Her voice is shaking with a barely audible breath.,66,4937.79999999702,-14.220595,short,low,bert,early,256,4,8_25,19,main_judgement,html-slider-response,31,315982,0.34981557555730086
prolific-pilot0,5eba5a3aa616f80119f6ef40,60b0093eadcf51c681c91fcf,West Bengal continues to be the name of the two halves of West Bengal and Odisha in India.,79,4732.79999999702,-22.742306,medium,high,bert,late,37923,8,6_1995,19,main_judgement,html-slider-response,32,320715,0.36509436762164965
prolific-pilot0,5dd6f1d7c5faa268624c5037,60b00a80d8b4be55a2531120,It is proposed to increase citizen interaction with more legislative accountability to be added to formal legislative acts.,23,39688.98999999967,-45.73304,medium,low,bert,early,32,3,8_1,26,main_judgement,html-slider-response,5,290716,-1.681345614953415
prolific-pilot0,5dd6f1d7c5faa268624c5037,60b00a80d8b4be55a2531120,"The Rhinos finished their time in ARFU Division 6 with an impressive 88% Win-Loss record (7 wins, 1 loss), thus earning a promotion Division 3.",100,9526.31500000006,-54.83802032470703,long,high,wiki,wiki,0,20,0_0,26,main_judgement,html-slider-response,6,300244,1.1695082240771377
prolific-pilot0,5dd6f1d7c5faa268624c5037,60b00a80d8b4be55a2531120,With his legal background he was a major influence on the first Danish Nature Conservation Act of 1917.,68,12084.659999999567,-33.8421630859375,medium,high,wiki,wiki,0,13,0_0,26,main_judgement,html-slider-response,7,312330,0.12009611535381534
prolific-pilot0,5dd6f1d7c5faa268624c5037,60b00a80d8b4be55a2531120,A total of 9 nations were invited to participate.,67,26566.969999999856,-8.687564,short,high,bert,early,16,9,8_1,26,main_judgement,html-slider-response,8,338897,0.10950396198585495
prolific-pilot0,5dd6f1d7c5faa268624c5037,60b00a80d8b4be55a2531120,It is currently the largest such complex in Russia.,10,4912.20000000071,-13.380422592163086,short,high,wiki,wiki,0,26,0_0,26,main_judgement,html-slider-response,9,343811,-1.6243087694568477
prolific-pilot0,604def7a76cb955e441a7b40,60b00adb9f89ef0d89ded80f,"After spending the next several months in an Illinois hospital, Ellie was entrusted into the custody of her husband, John, whom she was pleased to discover was still very much alive.",73,28163.469999999506,-47.580086,long,high,bert,early,1,5,0_0,29,main_judgement,html-slider-response,5,159739,0.2544824023090644
prolific-pilot0,5dd6f1d7c5faa268624c5037,60b00a80d8b4be55a2531120,"They are raised as brother and sister, and Ja'far pays for Hamid's education.",39,9670.869999999879,-10.783734321594238,medium,high,wiki,wiki,0,28,0_0,26,main_judgement,html-slider-response,10,353483,-1.0408329997330663
prolific-pilot0,604def7a76cb955e441a7b40,60b00adb9f89ef0d89ded80f,Official route numbers generally increase moving north to communicate.,21,13941.330000001471,-50.78547,short,low,bert,early,2,4,3_0,29,main_judgement,html-slider-response,6,173686,-1.3491237894581503
prolific-pilot0,604def7a76cb955e441a7b40,60b00adb9f89ef0d89ded80f,He was waived from injured reserve on September 24.,69,13274.26999999443,-13.237730026245115,short,high,wiki,wiki,0,44,0_0,29,main_judgement,html-slider-response,7,186967,0.4699195221708163
prolific-pilot0,604def7a76cb955e441a7b40,60b00adb9f89ef0d89ded80f,"However, in the tenth and final round, Prescott was knocked down and then hurt by a series of punches from Alvarado, which forced the referee to stop the fight.",88,11289.859999989858,-26.27457,long,high,bert,early,1,8,0_0,29,main_judgement,html-slider-response,8,198263,0.9485253176974218
prolific-pilot0,604def7a76cb955e441a7b40,60b00adb9f89ef0d89ded80f,The route numbers generally increase moving north to south.,86,17939.74000000162,-39.42032,short,low,bert,early,0,4,7_0,29,main_judgement,html-slider-response,9,216206,1.1141640283727419
prolific-pilot0,604def7a76cb955e441a7b40,60b00adb9f89ef0d89ded80f,"This encapsulated ribosome is a recombinational ribosome containing three isoforms, beta-I, beta-II, and beta-V.",80,8526.965000026394,-12.133676,long,high,bert,late,69859,6,9_1995,29,main_judgement,html-slider-response,10,224739,0.5783690961569645
prolific-pilot0,604def7a76cb955e441a7b40,60b00adb9f89ef0d89ded80f,There was no time to precipitate.,38,5964.945000014268,-0.45558658,short,low,bert,late,9559,4,6_955,29,main_judgement,html-slider-response,12,238109,-0.7048792832562246
prolific-pilot0,604def7a76cb955e441a7b40,60b00adb9f89ef0d89ded80f,"If both, and are cosmologically uniquely determined, then we have two mutual reductive components : the (I) component and the (II) component.",70,14007.444999995641,-23.635712,long,high,bert,late,69859,7,3_1995,29,main_judgement,html-slider-response,13,252124,0.1156738192313929
prolific-pilot0,604def7a76cb955e441a7b40,60b00adb9f89ef0d89ded80f,The station is currently managed by TfL Rail.,69,5115.95499998657,-3.1483030319213867,short,high,wiki,wiki,0,10,0_0,29,main_judgement,html-slider-response,14,257243,0.4699195221708163
prolific-pilot0,604def7a76cb955e441a7b40,60b00adb9f89ef0d89ded80f,"""How many bridges?"" ""and too many trains,"" said Dimity from behind.",16,11058.68499999633,-26.934452,medium,high,bert,late,37923,5,7_1995,29,main_judgement,html-slider-response,15,268307,-0.7071067811865476
prolific-pilot0,604def7a76cb955e441a7b40,60b00adb9f89ef0d89ded80f,"The distribution of ""Praticolella griseola"" includes Cuba and Costa Rica The non-indigenous distribution of ""Praticolella griseola"" includes Martinique.",26,7346.575000003213,-20.54501342773437,long,high,wiki,wiki,0,27,0_0,29,main_judgement,html-slider-response,16,275661,-1.9201853992411222
prolific-pilot0,604def7a76cb955e441a7b40,60b00adb9f89ef0d89ded80f,Then I just stepped into the light of that streetlamp and started hearing and seeing things.,100,6422.1099999849685,-13.113554,medium,low,bert,early,512,1,4_26,29,main_judgement,html-slider-response,17,282090,0.7071067811865476
prolific-pilot0,5ff78204dfb1e6464cbf5137,60b00b73563ab42a7d67140d,Mass production of Latvian euros began in July 2013.,72,48281.099999997765,-37.12205,short,low,bert,early,2,3,2_0,30,main_judgement,html-slider-response,5,234728,0.3137224121071752
prolific-pilot0,604def7a76cb955e441a7b40,60b00adb9f89ef0d89ded80f,"The brain waves are generated in the enclosed EEG headset, which allows the user to control the air stream with their concentration, thus lifting or lowering a delicate foam ball.",68,10180.289999989327,-94.53061,long,low,bert,early,4,3,4_0,29,main_judgement,html-slider-response,18,292276,0.02313476384627858
prolific-pilot0,5dd6f1d7c5faa268624c5037,60b00a80d8b4be55a2531120,"Cellar caves of soft-margin-plentiful and heterogeneous newt tativara purpura are found in Burkina Faso, Burkina Faso and Guinea Bissau.",38,146695.72999999946,-71.17881,long,high,bert,late,69859,6,5_1995,26,main_judgement,html-slider-response,11,500180,-1.9660381496648098
prolific-pilot0,5f96f554729eab02d6d69e63,60b00c0e28b1d710ed962eb3,"She was raised in the town Cordoba, Argentina.",100,9591.595000005327,-15.043057441711426,short,high,wiki,wiki,0,32,0_0,2,main_judgement,html-slider-response,5,108016,1.3176460572796205
prolific-pilot0,5dd6f1d7c5faa268624c5037,60b00a80d8b4be55a2531120,The Hats eagerly caught at the opportunity of recovering the lost lands of their own prestige with money.,68,11709.51500000048,-75.88898,medium,low,bert,early,2,1,0_0,26,main_judgement,html-slider-response,13,515366,0.12009611535381534
prolific-pilot0,5f96f554729eab02d6d69e63,60b00c0e28b1d710ed962eb3,"If person wants to transport a bike in a Prague train, ticket for oversized luggage is needed.",9,19857.68499993719,-68.75542,medium,low,bert,early,0,2,0_0,2,main_judgement,html-slider-response,6,127877,-1.6636377657672807
prolific-pilot0,5f96f554729eab02d6d69e63,60b00c0e28b1d710ed962eb3,Their goal is to venture over the moratorium.,66,5897.875000024214,-27.738605,short,low,bert,early,512,3,6_51,2,main_judgement,html-slider-response,7,133778,0.31090524947047227
prolific-pilot0,5f96f554729eab02d6d69e63,60b00c0e28b1d710ed962eb3,"The finals were held at the Beilun Sports and Arts Centre in Ningbo, China.",90,6909.959999960847,-21.367834091186523,medium,high,wiki,wiki,0,10,0_0,2,main_judgement,html-slider-response,8,140692,1.065570518326891
prolific-pilot0,5f96f554729eab02d6d69e63,60b00c0e28b1d710ed962eb3,"Lake Buchanan has fewer stored oxygen due to poor water quality than the other two lakes, and is fairly poor in terms of organic biomass and essentially an oligotrophic lake.",86,10245.149999973364,-54.14244,long,high,bert,early,32,7,6_0,2,main_judgement,html-slider-response,9,150941,0.873088229540044
prolific-pilot0,5ff78204dfb1e6464cbf5137,60b00b73563ab42a7d67140d,The sheet music was composed by Francis Peake.,33,74385.40000000224,-11.324283,short,high,bert,early,16,7,6_1,30,main_judgement,html-slider-response,6,309115,-0.8831967906060695
prolific-pilot0,5f96f554729eab02d6d69e63,60b00c0e28b1d710ed962eb3,"About 37% of the population attended lower secondary schools, while the majority attended higher secondary schools.",82,10882.530000060797,-11.455372,medium,high,bert,late,18923,7,0_995,2,main_judgement,html-slider-response,10,161827,0.7960190828608001
prolific-pilot0,5ff78204dfb1e6464cbf5137,60b00b73563ab42a7d67140d,"By the 1940s the AM broadcasting industry had adopted the Wardley-Parsons design for their new type yard CFL, two cross rotating airborne masts which had a different radiation pattern.",98,19694.10000000149,-118.386536,long,low,bert,early,16,0,9_0,30,main_judgement,html-slider-response,7,328811,1.213429904802826
prolific-pilot0,5f96f554729eab02d6d69e63,60b00c0e28b1d710ed962eb3,"""Ultra HD"" was selected by the Consumer Electronics Association after extensive consumer research, as the term has also been established with the introduction of ""Ultra HD Blu-ray"".",36,23008.015000028536,-39.70833587646485,long,high,wiki,wiki,0,13,0_0,2,main_judgement,html-slider-response,11,184837,-0.7071619596727052
prolific-pilot0,5f96f554729eab02d6d69e63,60b00c0e28b1d710ed962eb3,Ali Popov's name was Princess Anna.,25,11592.960000038147,-32.26495,short,low,bert,early,8,2,9_0,2,main_judgement,html-slider-response,12,196435,-0.9031057246523242
prolific-pilot0,5ff78204dfb1e6464cbf5137,60b00b73563ab42a7d67140d,The length of the forewings is about 28mm.,100,36189,-5.218719,short,high,bert,late,9959,7,2_995,30,main_judgement,html-slider-response,8,365002,1.173049019183351
prolific-pilot0,5f96f554729eab02d6d69e63,60b00c0e28b1d710ed962eb3,"Of these, 37% (over 70) and 10% (over 75) are professionals.",18,14158.070000004955,-21.095201,medium,low,bert,late,37923,1,3_1995,2,main_judgement,html-slider-response,14,218769,-1.3603924008679282
prolific-pilot0,5d532c6854e9bb0017ed6b08,60b00afd926a0068f47bc622,"The flowering time is usually during the rainy season, and slows down as new plants appear.",90,17036.674999999377,-8.349829,medium,high,bert,early,128,6,4_6,1,main_judgement,html-slider-response,5,253687,0.9791890164050194
prolific-pilot0,5f96f554729eab02d6d69e63,60b00c0e28b1d710ed962eb3,Many Swedish groups of the 1990s began to play a combination of D-beat with crust punk.,56,8466.83499997016,-49.43074035644531,medium,low,wiki,wiki,0,22,0_0,2,main_judgement,html-slider-response,15,227240,-0.08002308240399578
prolific-pilot0,5dd6f1d7c5faa268624c5037,60b00a80d8b4be55a2531120,"Robinson's valuable characteristic lies in his compilation of over 500 engraved canvases of mythological and historic materials, the system by which it was left unchallenged for long.",100,113654.80500000017,-82.11757,long,low,bert,early,64,4,0_1,26,main_judgement,html-slider-response,14,629022,1.1695082240771377
prolific-pilot0,5ff78204dfb1e6464cbf5137,60b00b73563ab42a7d67140d,"By the 1940s the AM conversion industry had abandoned the Blaw-Knox design for a modern type, spherical, shaped cross section survey mast, which had a ring radiation pattern.",33,22575,-122.32341,long,low,bert,early,8,0,0_0,30,main_judgement,html-slider-response,9,387579,-0.46075994026711076
prolific-pilot0,5f96f554729eab02d6d69e63,60b00c0e28b1d710ed962eb3,"Ultimately, I'm quite trim in fashion.",75,6358.039999962784,-31.977028,short,low,bert,late,19959,4,4_1995,2,main_judgement,html-slider-response,16,233603,0.5773954633023056
prolific-pilot0,5d532c6854e9bb0017ed6b08,60b00afd926a0068f47bc622,"He was buried at Santa María Magdalena de Pazzis Cemetery in San Juan, Puerto Rico.",91,15418.79500000138,-13.01152801513672,medium,high,wiki,wiki,0,48,0_0,1,main_judgement,html-slider-response,6,269108,1.013546525752564
prolific-pilot0,5dd6f1d7c5faa268624c5037,60b00a80d8b4be55a2531120,"Had she lost her grip? Had she fallen into her original startup position? She spotted the hatch at the back of the plane, crouching in it nose to nose.",79,12375.619999999763,-42.924553,long,low,bert,late,69859,2,4_1995,26,main_judgement,html-slider-response,15,641399,0.10746832329357481
prolific-pilot0,5f96f554729eab02d6d69e63,60b00c0e28b1d710ed962eb3,Legislation is introduced to increase government efficiency with 264 new tasks to be attached to the legal system.,67,11686.075000092387,-46.860817,medium,low,bert,early,2,3,5_0,2,main_judgement,html-slider-response,17,245292,0.2906101413618794
prolific-pilot0,5dd6f1d7c5faa268624c5037,60b00a80d8b4be55a2531120,She'd mentioned him several times that night.,100,7626.360000000219,-10.804977,short,low,bert,late,9959,4,3_995,26,main_judgement,html-slider-response,16,649026,1.1132902801895248
prolific-pilot0,5d532c6854e9bb0017ed6b08,60b00afd926a0068f47bc622,The newly elected president proposes an early recall strategy.,89,15703.099999998813,-30.907711,short,low,bert,early,32,1,9_3,1,main_judgement,html-slider-response,7,284814,0.4675292898558054
prolific-pilot0,5dd6f1d7c5faa268624c5037,60b00a80d8b4be55a2531120,"""You lead a simple life with your work ethic,"" she mercilessly snapped.",86,5945.384999999893,-13.149254000000001,medium,high,bert,late,37923,9,7_1995,26,main_judgement,html-slider-response,17,654973,0.8406728074767075
prolific-pilot0,5f96f554729eab02d6d69e63,60b00c0e28b1d710ed962eb3,"They then launched the Great Dickens Christmas Fair of San Francisco, an indoor event, in 1970.",67,8551.590000046417,-81.04999,medium,low,bert,early,0,0,9_0,2,main_judgement,html-slider-response,18,253846,0.2906101413618794
prolific-pilot0,5ff78204dfb1e6464cbf5137,60b00b73563ab42a7d67140d,And then he knew to a kid named Kavi who had befriended him but never acknowledged him.,14,28834.900000002235,-42.856804,medium,high,bert,late,36308,6,6_1910,30,main_judgement,html-slider-response,10,416415,-1.7720917574178625
prolific-pilot0,5dd6f1d7c5faa268624c5037,60b00a80d8b4be55a2531120,"She had always dreamed of writing plays, and she began writing and acting in her teenage years.",84,7261.630000000005,-7.5777926,medium,high,bert,early,0,9,0_0,26,main_judgement,html-slider-response,18,662235,0.7606087305741639
prolific-pilot0,5f96f554729eab02d6d69e63,60b00c0e28b1d710ed962eb3,"He was an aggressive anti-white supremacist, and was excommunicated months later after he argued that his racial crimes were vindicated by Coca-Cola.",37,12483.119999989867,-21.19557,long,high,bert,late,34859,5,2_995,2,main_judgement,html-slider-response,19,266331,-0.6755569558884503
prolific-pilot0,5dd6f1d7c5faa268624c5037,60b00a80d8b4be55a2531120,"During the lengthy period of ancient Rome, the Capitoline Hill was the geographical and ceremonial center.",87,7431.625000000116,-28.58924674987793,medium,high,wiki,wiki,0,38,0_0,26,main_judgement,html-slider-response,19,669668,0.8807048459279793
prolific-pilot0,5f96f554729eab02d6d69e63,60b00c0e28b1d710ed962eb3,"However, in the tenth and final round, Prescott was knocked down and then hurt by a series of punches from Alvarado, which forced the referee to stop the fight.",86,14954.230000032112,-26.27457,long,high,bert,early,0,8,0_0,2,main_judgement,html-slider-response,20,281288,0.873088229540044
prolific-pilot0,5d532c6854e9bb0017ed6b08,60b00afd926a0068f47bc622,"Chevalier viewed the landed estate’s development by elites was as much as anything a “psychological” impetus, to show one’s status whether or not the estate was profitable.",42,34810.719999997644,-209.438720703125,long,low,wiki,wiki,0,21,0_0,1,main_judgement,html-slider-response,8,319628,0.08668723725969234
prolific-pilot0,5dd6f1d7c5faa268624c5037,60b00a80d8b4be55a2531120,"The three songs are based on an affectionately risque sonet ""which allows the singer to assume a darker view of everyday life, whether walking or shooting a hot air balloon.""",69,24207.53000000061,-93.4317,long,low,bert,early,128,3,4_3,26,main_judgement,html-slider-response,20,693876,-0.39826496279383605
prolific-pilot0,5f96f554729eab02d6d69e63,60b00c0e28b1d710ed962eb3,"After spending the next several years in an illegal orphanage, Rose was placed under the care of her father, Daniel, who she was horrified to discover was still very much alive.",82,12107.414999976754,-29.345924,long,high,bert,early,32,5,1_0,2,main_judgement,html-slider-response,21,293398,0.746668214403024
prolific-pilot0,5d532c6854e9bb0017ed6b08,60b00afd926a0068f47bc622,I just cannot bring her face to face experience.,35,11339.50999999803,-39.093166,short,low,bert,late,14959,1,9_1495,1,main_judgement,html-slider-response,9,330970,-2.089086573659485
prolific-pilot0,5f96f554729eab02d6d69e63,60b00c0e28b1d710ed962eb3,"Peter Davis, Elaine Pearson, and Walt Rigon were members in the new riding of Sturgeon, at one time as junior MLA, before becoming an independent in the 1998 election.",82,11600.175000028685,-88.312195,long,high,bert,late,34859,6,8_995,2,main_judgement,html-slider-response,22,305000,0.746668214403024
prolific-pilot0,5ff78204dfb1e6464cbf5137,60b00b73563ab42a7d67140d,Jack and Eric team up to disrupt the party.,54,49733.900000002235,-19.97682380676269,short,high,wiki,wiki,0,25,0_0,30,main_judgement,html-slider-response,11,466151,-0.2387018352989377
prolific-pilot0,5d532c6854e9bb0017ed6b08,60b00afd926a0068f47bc622,He leaned forward and looked unconvincingly into those lustrous gray eyes of hers.,84,12182.225000000442,-6.2239594,medium,high,bert,late,37923,6,2_1995,1,main_judgement,html-slider-response,10,343155,0.7730439603197522
prolific-pilot0,5dd6f1d7c5faa268624c5037,60b00a80d8b4be55a2531120,"Papa, Papa Papa, Papa, Papa, Papa, Papa is a 1972 - 1973 Italian film directed by Marcello Azzi and Rosita D'Agostino.",69,20469.259999999893,-9.261128,long,high,bert,late,34859,9,7_995,26,main_judgement,html-slider-response,21,714347,-0.39826496279383605
prolific-pilot0,5d532c6854e9bb0017ed6b08,60b00afd926a0068f47bc622,She grew up with five brothers and ten sisters.,100,6587.499999997846,-8.025244,short,high,bert,early,1,8,0_0,1,main_judgement,html-slider-response,11,349747,0.9883214102015127
prolific-pilot0,5f96f554729eab02d6d69e63,60b00c0e28b1d710ed962eb3,"Sunday I feel the moment right, and I wonder if I'm so euphoric that you can only ask for a soothing dormer made from sturdy Kevlar.",0,17716.07999992557,-70.47477,long,low,bert,late,68984,1,2_1970,2,main_judgement,html-slider-response,23,322721,-1.8449420959058846
prolific-pilot0,5dd6f1d7c5faa268624c5037,60b00a80d8b4be55a2531120,"Sánchez has also appeared as a guest actor on the Spanish TV series ""Farmacia de guardia"" and ""Los ladrones van a la oficina"".",78,13329.630000000121,-40.94150161743164,long,high,wiki,wiki,0,23,0_0,26,main_judgement,html-slider-response,22,727677,0.05689499468483372
prolific-pilot0,5f96f554729eab02d6d69e63,60b00c0e28b1d710ed962eb3,The new coach was the 2009 Kentucky Armoury.,29,8393.069999990985,-42.523857,short,low,bert,early,16,0,1_1,2,main_judgement,html-slider-response,24,331118,-0.7846656296159538
prolific-pilot0,5d532c6854e9bb0017ed6b08,60b00afd926a0068f47bc622,"Additionally, in the fourth and final round, Hernandez was knocked down and knocked down by a lot of punches from Alvarado, which forced the referee to stop the fight.",50,15258.450000001176,-24.495163,long,high,bert,early,256,8,6_7,1,main_judgement,html-slider-response,12,365007,0.39009256766861566
prolific-pilot0,5dd6f1d7c5faa268624c5037,60b00a80d8b4be55a2531120,His character was often a police detective or lieutenant.,66,10559.474999999977,-17.3010196685791,short,high,wiki,wiki,0,31,0_0,26,main_judgement,html-slider-response,23,738238,0.07908619476756192
prolific-pilot0,5f96f554729eab02d6d69e63,60b00c0e28b1d710ed962eb3,Belle calls on the help of her former bike messengers to pinpoint the location of the car.,78,9889.559999923222,-32.5672607421875,medium,high,wiki,wiki,0,39,0_0,2,main_judgement,html-slider-response,25,341010,0.6612433651277546
prolific-pilot0,5dd6f1d7c5faa268624c5037,60b00a80d8b4be55a2531120,The music video was directed by John 114 Fox.,74,5526.530000000028,-21.549677,short,high,bert,early,256,7,1_25,26,main_judgement,html-slider-response,24,743765,0.3224283325139061
prolific-pilot0,5d532c6854e9bb0017ed6b08,60b00afd926a0068f47bc622,"After spending the next several years in a mental hospital, she is brought back to life by her friend, Peter, whom she makes love to but feels lonely and remembers little.",35,14191.78500000271,-23.14263,long,high,bert,early,512,5,4_14,1,main_judgement,html-slider-response,13,379202,-0.17879242684811555
prolific-pilot0,5f96f554729eab02d6d69e63,60b00c0e28b1d710ed962eb3,Its better audible ideals required an equally audible medium.,33,9361.000000033528,-53.5185,short,low,bert,early,1,1,4_0,2,main_judgement,html-slider-response,26,350374,-0.6662255345795834
prolific-pilot0,5d532c6854e9bb0017ed6b08,60b00afd926a0068f47bc622,He was probably a contemporary of Abu Bakr.,61,6842.08000000217,-2.0099125,short,high,bert,late,14959,6,4_1495,1,main_judgement,html-slider-response,14,386047,-0.8581233801150858
prolific-pilot0,5f96f554729eab02d6d69e63,60b00c0e28b1d710ed962eb3,I want you to go and take a walk.,99,4499.154999968596,-2.9748368,short,high,bert,late,14959,9,4_1495,2,main_judgement,html-slider-response,27,354876,1.2880360335205279
prolific-pilot0,5ff78204dfb1e6464cbf5137,60b00b73563ab42a7d67140d,Alikampet's mother is Joy Rose.,44,47022.699999999255,-40.232235,short,low,bert,early,0,2,3_0,30,main_judgement,html-slider-response,12,513175,-0.5456041949690005
prolific-pilot0,5ff78204dfb1e6464cbf5137,60b00b73563ab42a7d67140d,It also includes Amanila and Palqa.,100,8993.099999997765,-27.883465,short,low,bert,late,9759,4,2_975,30,main_judgement,html-slider-response,13,522170,1.173049019183351
prolific-pilot0,5dd6f1d7c5faa268624c5037,60b00a80d8b4be55a2531120,"Salisbury's great forte was usually his painting of over forty large canvases of historical and national events, a field in which he was virtually unchallenged until 1951.",82,24764.13500000036,-102.77577,long,low,bert,early,0,4,1_0,26,main_judgement,html-slider-response,25,768530,0.25918830911979807
prolific-pilot0,5f96f554729eab02d6d69e63,60b00c0e28b1d710ed962eb3,"However, in the sixth and final match, she was disqualified after she accidentally collided with her opponent, Jose Luis Alvarado, which forced the man to leave the ring.",58,20317.284999997355,-16.534664,long,high,bert,early,512,8,7_14,2,main_judgement,html-slider-response,28,375196,-0.011851876419095618
prolific-pilot0,5f96f554729eab02d6d69e63,60b00c0e28b1d710ed962eb3,These roads now cross it from north to south.,17,5743.375000078231,-11.928302,short,low,bert,early,64,4,2_6,2,main_judgement,html-slider-response,29,380941,-1.139985914725065
prolific-pilot0,5ff78204dfb1e6464cbf5137,60b00b73563ab42a7d67140d,What is known as the Vergata-Dewitt order was intended to prevent unreasonable behavior.,94,20360.199999999255,-30.834879,medium,low,bert,early,512,3,3_26,30,main_judgement,html-slider-response,14,542532,1.0444779232462902
prolific-pilot0,5d532c6854e9bb0017ed6b08,60b00afd926a0068f47bc622,"Most of today's Van Tuyls and Van Tyles are descended from the two youngest boys, twins Abraham and Isaac, both of whom became farmers on Staten Island.",92,24184.864999999234,-63.51420593261719,long,high,wiki,wiki,0,2,0_0,1,main_judgement,html-slider-response,16,417943,1.982970552315463
prolific-pilot0,5d532c6854e9bb0017ed6b08,60b00afd926a0068f47bc622,"She wore some of the most daringly constructed outfits of the entire year, ranging from a soaring red gown to a stand-up comedy to an excellent stage roast by Elijah.",27,22389.124999997905,-72.79463,long,low,bert,early,512,1,0_14,1,main_judgement,html-slider-response,17,440334,-0.4821977572570389
prolific-pilot0,59497b268bb5730001d4fe2f,60b00cf97faf901a37644393,"The growth rate is rapid in the first season, then slows down as the fish age.",98,11001.14999996731,-20.940775,medium,high,bert,early,1,6,1_0,8,main_judgement,html-slider-response,5,181296,0.6330662784539631
prolific-pilot0,5ff78204dfb1e6464cbf5137,60b00b73563ab42a7d67140d,"In another report posted by South China Morning Post, the researchers found that more than 38,000 tweets from 618 of the now-suspended Twitter accounts targeted Guo.",83,33179.89999999851,-62.30293273925781,long,high,wiki,wiki,0,39,0_0,30,main_judgement,html-slider-response,15,575714,0.8270784020943792
prolific-pilot0,59497b268bb5730001d4fe2f,60b00cf97faf901a37644393,"""Yup,"" his boss, as well as other members, said with a smile.",97,4801.395000016782,-14.93953,medium,high,bert,late,37448,9,9_1970,8,main_judgement,html-slider-response,6,186102,0.6046594582669264
prolific-pilot0,5d532c6854e9bb0017ed6b08,60b00afd926a0068f47bc622,"McCarrick disappeared on March 26, 1993.",89,12906.875000000582,-31.72734832763672,short,low,wiki,wiki,0,14,0_0,1,main_judgement,html-slider-response,18,453244,0.4675292898558054
prolific-pilot0,59497b268bb5730001d4fe2f,60b00cf97faf901a37644393,I decided there were several ways to counter this.,74,5239.019999979064,-11.60005,short,high,bert,late,11759,9,8_1175,8,main_judgement,html-slider-response,7,191344,-0.1827809318717893
prolific-pilot0,5d532c6854e9bb0017ed6b08,60b00afd926a0068f47bc622,"Like halogens it is converted to citric acid, by elimination with oxaloacetate.",32,12019.445000001753,-19.136387,medium,high,bert,early,256,8,0_13,1,main_judgement,html-slider-response,19,465266,-1.013546525752564
prolific-pilot0,5de4467a7d441742885750dc,60b00cdf6074bf3cfa9d3677,"Lincoln also received mail that called him ""a negro"" and a ""mulatto"".",23,12738.175000064075,-17.588958740234375,medium,high,wiki,wiki,0,31,0_0,13,main_judgement,html-slider-response,5,165111,-0.567576378718127
prolific-pilot0,59497b268bb5730001d4fe2f,60b00cf97faf901a37644393,"The two platforms were connected by an alloy-wrapped catenary, which connected the platforms to their respective running sites at their summit, enabling this mechanical connection at each level crossing.",44,16443.100000033155,-63.887512,long,low,bert,early,512,3,9_14,8,main_judgement,html-slider-response,8,207791,-0.05274781110335532
prolific-pilot0,5d532c6854e9bb0017ed6b08,60b00afd926a0068f47bc622,The design of the head varied greatly with a variety of interchangeable parts and rivets.,65,12739.499999999709,-19.90128326416016,medium,high,wiki,wiki,0,18,0_0,1,main_judgement,html-slider-response,20,478007,0.1202512827164059
prolific-pilot0,59497b268bb5730001d4fe2f,60b00cf97faf901a37644393,Coming out malevolent and vehement.,31,6315.059999993537,-2.977951,short,low,bert,late,19959,2,9_1995,8,main_judgement,html-slider-response,9,214110,-1.8821495957608574
prolific-pilot0,5d532c6854e9bb0017ed6b08,60b00afd926a0068f47bc622,"1,204 people are employed in the secondary sector and there are 100 businesses in this sector.",75,11029.599999997998,-12.365591,medium,high,bert,early,16,7,8_0,1,main_judgement,html-slider-response,21,489040,0.4638263761918513
prolific-pilot0,5de4467a7d441742885750dc,60b00cdf6074bf3cfa9d3677,"She practicing some of the most traditional and memorable elements in the entertainment industry, ranging from her native Asian tinting and make-up, to her signature hair style and makeup.",100,16917.77000017464,-63.7714,long,low,bert,early,32,1,8_0,13,main_judgement,html-slider-response,6,182037,1.9052573113732136
prolific-pilot0,59497b268bb5730001d4fe2f,60b00cf97faf901a37644393,"After spending the following two years in an abusive home, Ward was taken into the care of her father, Blogger, where she was forced to watch him espouse money.",73,13628.259999968577,-42.404198,long,high,bert,early,256,5,5_7,8,main_judgement,html-slider-response,10,227743,0.7630850006285403
prolific-pilot0,5ff78204dfb1e6464cbf5137,60b00b73563ab42a7d67140d,"It contains two homologous synaptic binding proteins known as MP and MMC (attributable to a short, serrated occipital plate).",87,30188.70000000298,-25.59577,long,high,bert,late,14734,6,7_420,30,main_judgement,html-slider-response,17,626869,0.9301054694832984
prolific-pilot0,59497b268bb5730001d4fe2f,60b00cf97faf901a37644393,A total of 16 teams were invited to participate.,100,3906.279999995604,-5.408518,short,high,bert,early,1,9,0_0,8,main_judgement,html-slider-response,12,235911,0.84474430675881
prolific-pilot0,5de4467a7d441742885750dc,60b00cdf6074bf3cfa9d3677,"The underwater fuel was routed to the push components, to keep it separate from the camshaft.",74,14371.445000171661,-57.76709,medium,high,bert,early,256,6,5_13,13,main_judgement,html-slider-response,7,196418,1.5569296994194495
prolific-pilot0,5d532c6854e9bb0017ed6b08,60b00afd926a0068f47bc622,Services provide employment for 5% of the population.,80,15016.530000000726,-3.820935964584351,short,high,wiki,wiki,0,43,0_0,1,main_judgement,html-slider-response,22,504059,0.04142664593659035
prolific-pilot0,59497b268bb5730001d4fe2f,60b00cf97faf901a37644393,"1,253 people are employed in the secondary sector and there are 292 businesses in this sector.",99,6355.21000000881,-13.797546,medium,high,bert,early,0,7,5_0,8,main_judgement,html-slider-response,13,242271,0.6614730986409999
prolific-pilot0,5d532c6854e9bb0017ed6b08,60b00afd926a0068f47bc622,I watched Mandorallen wrinkle and scribble and deftly scribble billions of crumbly figurines flying through the air and almost hitting us.,13,12637.249999999767,-18.793312,long,high,bert,late,52359,8,6_1495,1,main_judgement,html-slider-response,23,516699,-1.0131570854726546
prolific-pilot0,59497b268bb5730001d4fe2f,60b00cf97faf901a37644393,The public relations events performed consisted of two rounds.,79,8842.10999996867,-23.76984,short,high,bert,early,8,5,2_0,8,main_judgement,html-slider-response,14,251117,0.014820075557172104
prolific-pilot0,5de4467a7d441742885750dc,60b00cdf6074bf3cfa9d3677,"Tomases (bull, oxen) is a poem written by Juan Pablo de Riceti.",12,18020.355000160635,-51.9964,medium,low,bert,late,26808,2,8_1410,13,main_judgement,html-slider-response,8,214445,-1.0258031798850553
prolific-pilot0,5d532c6854e9bb0017ed6b08,60b00afd926a0068f47bc622,"Winters landed uncredited her roles in MGM's Over The Border (1952), The Return of the King (1954), and The First Movement (1956) among others.",19,10639.019999998738,-58.17974,long,low,bert,late,69859,1,6_1995,1,main_judgement,html-slider-response,25,534134,-0.7856030876659622
prolific-pilot0,60315645c8c7420a2f1ade9c,60b00ca80823a5b18e199fbd,"The flight controls are equipped with Dornier Legere signa, which causes the aircraft to pass the parked aircraft and produces yield reduction by pushing or pulling or lifting the aircraft.",93,14933,-69.73002,long,low,bert,early,256,3,1_7,5,main_judgement,html-slider-response,5,313175,1.1630824620915414
prolific-pilot0,5de4467a7d441742885750dc,60b00cdf6074bf3cfa9d3677,"It is used to house inmates arrested in the patrol area, with the exception of misdemeanors committed in the city of Las Vegas, which maintains its own jail.",32,15654.914999380708,-35.799534,long,high,bert,early,2,6,0_0,13,main_judgement,html-slider-response,9,230107,-0.41864398321653573
prolific-pilot0,59497b268bb5730001d4fe2f,60b00cf97faf901a37644393,"By the 1940s the AM broadcast industry had abandoned the Blaw-Knox design for the modern type of light, uniform cross section lattice mast, which had a tall radiation pattern.",27,21844.035000016447,-103.91441,long,low,bert,early,1,0,1_0,8,main_judgement,html-slider-response,15,272965,-0.5309946317737769
prolific-pilot0,5d532c6854e9bb0017ed6b08,60b00afd926a0068f47bc622,A total of 6 teams were invited to participate.,89,7125.479999998817,-6.4689364,short,high,bert,early,4,9,5_0,1,main_judgement,html-slider-response,26,541261,0.4675292898558054
prolific-pilot0,59497b268bb5730001d4fe2f,60b00cf97faf901a37644393,His also audible ideals required an improved recording medium.,53,7003.834999981336,-51.695732,short,low,bert,early,4,1,1_0,8,main_judgement,html-slider-response,16,279973,-1.0127051630734272
prolific-pilot0,5d532c6854e9bb0017ed6b08,60b00afd926a0068f47bc622,The broadcast was titled Spice Girls In Concert: Wild!,90,7774.194999998203,-42.61017608642578,short,low,wiki,wiki,0,23,0_0,1,main_judgement,html-slider-response,27,549038,0.5148740280690515
prolific-pilot0,60315645c8c7420a2f1ade9c,60b00ca80823a5b18e199fbd,This often leads to harmful impact on the host.,49,14583.999999999825,-19.05282211303711,short,high,wiki,wiki,0,28,0_0,5,main_judgement,html-slider-response,6,327775,-0.5880197849437212
prolific-pilot0,5de4467a7d441742885750dc,60b00cdf6074bf3cfa9d3677,"Salisbury's great legacy was certainly his painting of over forty large canvases of historical and national events, a field in which he was virtually unchallenged until 1951.",75,14126.805000007153,-103.097015,long,low,bert,early,1,4,3_0,13,main_judgement,html-slider-response,10,244244,1.0508818354210998
prolific-pilot0,5ff78204dfb1e6464cbf5137,60b00b73563ab42a7d67140d,"These live sounds are amplified through an integrated ekg headset, which allows a user to monitor the airflow at one face, by stretching and vibrating the falling via lines.",0,50426.800000000745,-103.09307,long,low,bert,early,32,3,0_0,30,main_judgement,html-slider-response,18,677298,-1.3107332462256942
prolific-pilot0,5d532c6854e9bb0017ed6b08,60b00afd926a0068f47bc622,Asparagine readily follows the nitric acid cycle in equilibrium with oxaloacetate.,41,5998.92499999993,-14.424695,medium,high,bert,early,16,8,5_0,1,main_judgement,html-slider-response,28,555040,-0.7043289416246631
prolific-pilot0,59497b268bb5730001d4fe2f,60b00cf97faf901a37644393,"The surviving officer squints up at Vonnegut. ""say whatever I say!""",70,11947.214999992866,-25.257961,medium,high,bert,late,36688,7,6_1930,8,main_judgement,html-slider-response,17,291924,-0.16232468678306725
prolific-pilot0,60315645c8c7420a2f1ade9c,60b00ca80823a5b18e199fbd,He had several roles with the school of drama.,98,13480.999999999767,-15.978725,short,high,bert,early,256,6,8_25,5,main_judgement,html-slider-response,7,341256,0.7781123878350102
prolific-pilot0,5de4467a7d441742885750dc,60b00cdf6074bf3cfa9d3677,World Publications was renamed Bonnier Corporation in 2007.,93,13381.870000623167,-40.03321075439453,short,low,wiki,wiki,0,36,0_0,13,main_judgement,html-slider-response,11,257634,0.9641359867325459
prolific-pilot0,5d532c6854e9bb0017ed6b08,60b00afd926a0068f47bc622,"""Will you please come with me?"" asked Roxie ready-to-go seriously.",14,12204.2299999994,-12.42013,medium,low,bert,late,18923,3,5_995,1,main_judgement,html-slider-response,29,567247,-1.6319816940083658
prolific-pilot0,59497b268bb5730001d4fe2f,60b00cf97faf901a37644393,"The school's mascot, the cockroach (""cockroach boy""), is known in english as ""cockroach"" in American English.",28,13245.100000000093,-5.500064,long,low,bert,late,34859,2,8_995,8,main_judgement,html-slider-response,18,305172,-0.5028624658519874
prolific-pilot0,5de4467a7d441742885750dc,60b00cdf6074bf3cfa9d3677,The resulting succession battle caused the federation to collapse.,100,8135.789999738336,-24.6494140625,short,high,wiki,wiki,0,50,0_0,13,main_judgement,html-slider-response,12,265779,1.1583504301031307
prolific-pilot0,60315645c8c7420a2f1ade9c,60b00ca80823a5b18e199fbd,"The Pops 00 series (""Mozart, and people photobook"") appears throughout the series.",6,12702.999999999476,-62.61761,medium,high,bert,late,28423,7,2_1495,5,main_judgement,html-slider-response,8,353959,-1.297439798942148
prolific-pilot0,59497b268bb5730001d4fe2f,60b00cf97faf901a37644393,"If person wants to ride a bike on a Prague train the ticket for oversized luggage, collect.",0,7356.020000006538,-74.12197,medium,low,bert,early,8,2,7_0,8,main_judgement,html-slider-response,19,312532,-2.150802099875643
prolific-pilot0,60315645c8c7420a2f1ade9c,60b00ca80823a5b18e199fbd,He is the son of actor Manuel Landeta.,92,5330.000000000873,-24.852802276611328,short,high,wiki,wiki,0,34,0_0,5,main_judgement,html-slider-response,9,359290,0.6108308972906757
prolific-pilot0,5de4467a7d441742885750dc,60b00cdf6074bf3cfa9d3677,About 170 camp participants attend the camps each week.,59,10794.855000451207,-27.664871,short,high,bert,early,0,6,5_0,13,main_judgement,html-slider-response,13,276581,0.020808690361134082
prolific-pilot0,59497b268bb5730001d4fe2f,60b00cf97faf901a37644393,"Despite its low selling price, the book has been a best-seller, and soon its second edition will be published less than a year after it first appeared in bookstores.",85,8041.945000004489,-23.287817,long,high,bert,early,16,9,7_0,8,main_judgement,html-slider-response,20,320578,1.1006709916900144
prolific-pilot0,59497b268bb5730001d4fe2f,60b00cf97faf901a37644393,"Oh my god, the hallway is on fire.",100,4101.629999990109,-9.112911,short,high,bert,late,19959,9,3_1995,8,main_judgement,html-slider-response,21,324683,0.84474430675881
prolific-pilot0,60315645c8c7420a2f1ade9c,60b00ca80823a5b18e199fbd,She could hardly say anything in front of him.,93,8949.999999999825,-5.682169,short,low,bert,late,19959,3,5_1995,5,main_judgement,html-slider-response,10,368240,0.6387111457147315
prolific-pilot0,5ff78204dfb1e6464cbf5137,60b00b73563ab42a7d67140d,"In 1993, Cunliffe was once again elected to the Knesset for the socialist party.",92,40593.800000000745,-9.952836,medium,low,bert,late,20158,0,4_1060,30,main_judgement,html-slider-response,19,717893,0.9740636812296863
prolific-pilot0,5de4467a7d441742885750dc,60b00cdf6074bf3cfa9d3677,"By the 1940s the AM broadcast industry had abandoned the Blaw-Knox design for the modern type of narrow, uniform cross section lattice mast, which had a common radiation pattern.",31,12618.325000628829,-92.67466,long,low,bert,early,0,0,4_0,13,main_judgement,html-slider-response,14,289206,-0.4528190022546203
prolific-pilot0,59497b268bb5730001d4fe2f,60b00cf97faf901a37644393,"If voters declined to accept a seat in any congress, a direct or plurality vote was required.",77,10834.535000030883,-35.781822,medium,low,bert,early,256,2,4_13,8,main_judgement,html-slider-response,22,335524,0.03652305452619034
prolific-pilot0,6047f75e14a2a910b2074fd0,60b00da07aa70dea4eaacd0a,"During a meeting to discuss the screenplay, Ray Bradbury informed John Huston that regarding Melville's novel, he had ""never been able to read the damned thing"".",89,17846.599999997765,-35.39849853515625,long,high,wiki,wiki,0,48,0_0,19,main_judgement,html-slider-response,5,167808,1.1178991806599718
prolific-pilot0,60315645c8c7420a2f1ade9c,60b00ca80823a5b18e199fbd,"Run, Mary, see, Pharaoh, Moses.",50,11568.999999999476,-52.724483,short,low,bert,late,9859,0,3_985,5,main_judgement,html-slider-response,11,379809,-0.5601395365196655
prolific-pilot0,5de4467a7d441742885750dc,60b00cdf6074bf3cfa9d3677,"The licence plate reads ""OKT42"".",14,7907.395000569522,-26.962421417236328,short,high,wiki,wiki,0,33,0_0,13,main_judgement,html-slider-response,15,297120,-1.227712731306911
prolific-pilot0,59497b268bb5730001d4fe2f,60b00cf97faf901a37644393,"His daughter Bernarda Catalina de Esparza, was the wife of Juan de Canaveris, one of the assistants to the Open Cabildo during the May Revolution.",98,5995.079999964219,-49.29610443115234,long,high,wiki,wiki,0,24,0_0,8,main_judgement,html-slider-response,23,341524,1.4663891486732779
prolific-pilot0,6047f75e14a2a910b2074fd0,60b00da07aa70dea4eaacd0a,"1,250 people are employed in the secondary sector and there are 332 businesses in this sector.",66,12018.800000000745,-13.647263,medium,high,bert,early,8,7,3_0,19,main_judgement,html-slider-response,6,179829,0.7044423405578341
prolific-pilot0,60315645c8c7420a2f1ade9c,60b00ca80823a5b18e199fbd,"Commonly referred to as secular theology (Sahityam theology), Brahman theology and Andhra shaivism, Andhra theology comes in many different (or conflating) classes.",5,13885.000000000233,-39.53383,long,low,bert,late,69859,3,3_1995,5,main_judgement,html-slider-response,12,393694,-1.047527833028451
prolific-pilot0,59497b268bb5730001d4fe2f,60b00cf97faf901a37644393,"'What would their gorging army do?'' they would take every city at once, and they would liberate every entire temple and tear down every temple.",5,11514.605000033043,-21.423733,long,low,bert,late,34859,4,0_995,8,main_judgement,html-slider-response,24,353043,-1.149902282053146
prolific-pilot0,5de4467a7d441742885750dc,60b00cdf6074bf3cfa9d3677,Let formula_27 be the set of those simple roots α such that the negative root spaces of root formula_28 are in formula_2 (like in section Properties).,18,12218.164999969304,-105.64993286132812,long,low,wiki,wiki,0,22,0_0,13,main_judgement,html-slider-response,17,314159,-0.8970942497497194
prolific-pilot0,5ff78204dfb1e6464cbf5137,60b00b73563ab42a7d67140d,"""I promise!"" Lilly Ann screeched, as she threw herself off the bench.",45,30028.60000000149,-14.552634,medium,low,bert,late,28423,2,3_1495,30,main_judgement,html-slider-response,20,747924,-0.6806710061605035
prolific-pilot0,59497b268bb5730001d4fe2f,60b00cf97faf901a37644393,"He has always dreamed of writing fiction, and began studying history and literature at a young age.",89,5929.815000039525,-8.862692,medium,high,bert,early,64,9,8_3,8,main_judgement,html-slider-response,25,358977,0.37740489677063194
prolific-pilot0,60315645c8c7420a2f1ade9c,60b00ca80823a5b18e199fbd,He was also one of the first scholars interpreting the international contemporary caste survey at a theoretical level.,93,12567.000000000058,-45.004665,medium,low,bert,early,8,4,7_0,5,main_judgement,html-slider-response,13,406276,0.7363847507509489
prolific-pilot0,5de4467a7d441742885750dc,60b00cdf6074bf3cfa9d3677,Ali Popov's mother is Joy Rose.,100,8123.510000295937,-35.753357,short,low,bert,early,4,2,9_0,13,main_judgement,html-slider-response,18,322289,1.1583504301031307
prolific-pilot0,6047f75e14a2a910b2074fd0,60b00da07aa70dea4eaacd0a,West Bengal continues to be the name of the two halves of West Bengal and Odisha in India.,28,19734.099999997765,-22.742306,medium,high,bert,late,37923,8,6_1995,19,main_judgement,html-slider-response,7,199565,-1.0540925533894598
prolific-pilot0,59497b268bb5730001d4fe2f,60b00cf97faf901a37644393,"In a documentary called Sixth Cell Drive (Lipschitz and Worsley, 2006) in 3D on July 1979, spartacus actor/producer Nicholas Stapleinson interviewed.",7,8878.119999950286,-109.80608,long,high,bert,late,50434,9,4_1440,8,main_judgement,html-slider-response,26,367858,-1.093637950209567
prolific-pilot0,59497b268bb5730001d4fe2f,60b00cf97faf901a37644393,"Maybe they knew, but they cared for her.",99,5427.815000002738,-10.208645,short,low,bert,late,19909,3,8_1990,8,main_judgement,html-slider-response,27,373290,0.8052241052730177
prolific-pilot0,5de4467a7d441742885750dc,60b00cdf6074bf3cfa9d3677,"All that night, even as I lay awake, my head on his chest, worried that he was stealing kisses for me, I knew I wasn't taking any chances.",30,12460.02500038594,-28.096249,long,low,bert,late,50959,1,1_1455,13,main_judgement,html-slider-response,19,334757,-0.4869940212927048
prolific-pilot0,59497b268bb5730001d4fe2f,60b00cf97faf901a37644393,Her dark hair billowed back from her forehead.,93,5019.650000031106,-5.0591817,short,high,bert,late,14959,6,8_1495,8,main_judgement,html-slider-response,28,378314,0.568102896358264
prolific-pilot0,60315645c8c7420a2f1ade9c,60b00ca80823a5b18e199fbd,"However, in the 12th and next round, he was left clean and was stopped by a series of punches from Alvarado, which caused the referee to stop the fight.",97,18179.00000000006,-32.7678,long,high,bert,early,64,8,2_1,5,main_judgement,html-slider-response,14,424454,1.2635647482333592
prolific-pilot0,6047f75e14a2a910b2074fd0,60b00da07aa70dea4eaacd0a,B1 - Chhaya Chhaya B2 - Chhaya Chhaya C3 - Chhaya C4 is made by irradiation (fusing) of G cells.,40,16234.300000000745,-20.736956,long,low,bert,late,69684,2,7_1990,19,main_judgement,html-slider-response,8,215807,-0.8125698890259707
prolific-pilot0,5de4467a7d441742885750dc,60b00cdf6074bf3cfa9d3677,"In modern times, cutting down a tree which houses a kodama is thought to bring misfortune and such trees are often marked with ""shimenawa"" rope.",18,11686.97000015527,-56.78756713867188,long,high,wiki,wiki,0,42,0_0,13,main_judgement,html-slider-response,20,346452,-0.8970942497497194
prolific-pilot0,6047f75e14a2a910b2074fd0,60b00da07aa70dea4eaacd0a,"Realizing I could get through a mono show, I decided to use the whole motion capture mode.",43,12417.10000000149,-49.48304,medium,high,bert,late,27663,6,5_1455,19,main_judgement,html-slider-response,9,228227,-0.3599340426207912
prolific-pilot0,60315645c8c7420a2f1ade9c,60b00ca80823a5b18e199fbd,"They ""infatuate"" rather than everyone else, stressing that (with the weapon absent) people do not have any relevant materials that may to infatuate them.",50,16600.99999999965,-60.08511,long,low,bert,late,69859,4,7_1995,5,main_judgement,html-slider-response,15,441055,0.08289788606699965
prolific-pilot0,5de4467a7d441742885750dc,60b00cdf6074bf3cfa9d3677,"Verizon Wireless (Global Wireless), the national national carrier, provides broadband internet service.",22,10927.919999696314,-20.898642,medium,high,bert,late,37923,7,8_1995,13,main_judgement,html-slider-response,21,357387,-0.6092333606423933
prolific-pilot0,5b146e7bc85dc40001624518,60b00da7acb548e4edabd880,"""The AK-47? Swapped out the other weapon? Another weapon?"" No answer.",92,29190.99000003189,-29.687092,medium,high,bert,late,37638,9,8_1980,20,main_judgement,html-slider-response,5,225701,0.5451512310928336
prolific-pilot0,6047f75e14a2a910b2074fd0,60b00da07aa70dea4eaacd0a,Her voice is shaking with a barely audible breath.,57,8776.300000000745,-14.220595,short,low,bert,early,256,4,8_25,19,main_judgement,html-slider-response,10,237007,0.30659287999821294
prolific-pilot0,5de4467a7d441742885750dc,60b00cdf6074bf3cfa9d3677,He attended Linda Linda Christian school 1999 - 2002.,34,10116.385000757873,-14.827243,short,high,bert,late,14959,6,2_1495,13,main_judgement,html-slider-response,22,367512,-0.6728143216766687
prolific-pilot0,5ff78204dfb1e6464cbf5137,60b00b73563ab42a7d67140d,"Flying through the dusky sky over Bourbon Street, as I strolled along casually, were fast, sweeping brown bats: An homage, maybe, to the business of interviewing vampires?",25,57027.900000002235,-99.17877960205078,long,low,wiki,wiki,0,40,0_0,30,main_judgement,html-slider-response,21,804954,-0.6668140750449492
prolific-pilot0,5de4467a7d441742885750dc,60b00cdf6074bf3cfa9d3677,Voices rapped on the incremental door.,50,7881.120000034571,-11.338848,short,high,bert,late,14959,9,1_1495,13,main_judgement,html-slider-response,23,375400,-0.22889559397247491
prolific-pilot0,60315645c8c7420a2f1ade9c,60b00ca80823a5b18e199fbd,"The growth rate is rapid in the first season, then slows down as the plants grow.",97,11916.999999999476,-12.702153,medium,high,bert,early,4,6,1_0,5,main_judgement,html-slider-response,17,463902,0.8298939254494822
prolific-pilot0,5b146e7bc85dc40001624518,60b00da7acb548e4edabd880,He said to answer 911 with his phone first.,92,17058.39499994181,-36.070274,short,high,bert,early,512,7,2_51,20,main_judgement,html-slider-response,6,242762,-0.06019982032052662
prolific-pilot0,6047f75e14a2a910b2074fd0,60b00da07aa70dea4eaacd0a,"""Hmmm, but I did sleep when I was a kid!"" ""bam bam bam bam!"" her green eyes quizzed him, asking him a million questions.",25,17815.400000002235,-21.113817,long,high,bert,late,59709,9,3_1705,19,main_judgement,html-slider-response,11,254824,-1.4035298083175858
prolific-pilot0,5de4467a7d441742885750dc,60b00cdf6074bf3cfa9d3677,The British built a small wooden hut on the Qahr creek and massacred the inhabitants.,58,11503.909999504685,-30.06583,medium,low,bert,early,512,0,6_26,13,main_judgement,html-slider-response,24,386912,0.8904179886311901
prolific-pilot0,5ff78204dfb1e6464cbf5137,60b00b73563ab42a7d67140d,A number of established groups are performed in london.,14,19040.199999999255,-29.706923,short,high,bert,early,256,9,4_25,30,main_judgement,html-slider-response,22,823996,-1.4663112739791888
prolific-pilot0,60315645c8c7420a2f1ade9c,60b00ca80823a5b18e199fbd,"1,345 people were employed in the secondary sector and there were 407 enterprises in this sector.",93,12232.999999999243,-20.423368,medium,high,bert,early,32,7,1_1,5,main_judgement,html-slider-response,18,476151,0.7363847507509489
prolific-pilot0,6047f75e14a2a910b2074fd0,60b00da07aa70dea4eaacd0a,"The specific epithet is derived from Ancient Greek ' ""whole"" and ' ""silken"".",75,10654.800000000745,-24.110557556152344,medium,high,wiki,wiki,0,34,0_0,19,main_judgement,html-slider-response,12,265481,1.1209374470190352
prolific-pilot0,5de4467a7d441742885750dc,60b00cdf6074bf3cfa9d3677,The individual diving competition all consisted of three rounds.,16,12207.294999621809,-22.109255,short,high,bert,early,1,5,0_0,13,main_judgement,html-slider-response,25,399127,-1.1722228903438867
prolific-pilot0,6047f75e14a2a910b2074fd0,60b00da07aa70dea4eaacd0a,The cover story on the firebombs exclaimed.,39,6746.29999999702,-22.512587,short,high,bert,late,14959,5,7_1495,19,main_judgement,html-slider-response,13,272230,-0.23920982944915498
prolific-pilot0,5b146e7bc85dc40001624518,60b00da7acb548e4edabd880,"Although corporations are legal citizens of the corporation, the charter law as established in this code differs from individual to individual, as it provides equal protection for claims expressed by a corporation.",6,19599.734999937937,-71.567055,long,low,bert,early,512,2,9_14,20,main_judgement,html-slider-response,7,262365,-1.9316166772302927
prolific-pilot0,60315645c8c7420a2f1ade9c,60b00ca80823a5b18e199fbd,The chorus singer is now Javier Perrese.,94,9111.000000000815,-35.514053,short,low,bert,early,8,0,0_0,5,main_judgement,html-slider-response,19,485263,0.6665913941387873
prolific-pilot0,6047f75e14a2a910b2074fd0,60b00da07aa70dea4eaacd0a,"She clutched my wet hair, and we kissed.",69,8405.89999999851,-9.711538,short,high,bert,late,19959,5,6_1995,19,main_judgement,html-slider-response,14,280637,0.6704613529631249
prolific-pilot0,5b146e7bc85dc40001624518,60b00da7acb548e4edabd880,She just wanted to feel as if nothing happened.,100,9236.069999984466,-4.324562,short,low,bert,late,14959,2,3_1495,20,main_judgement,html-slider-response,8,271606,0.32966568270764607
prolific-pilot0,5de4467a7d441742885750dc,60b00cdf6074bf3cfa9d3677,"If one wishes to purchase a vehicle from another vehicle manufacturer, purchase by that manufacturer is permitted.",32,12699.340000748634,-11.429042,medium,low,bert,early,128,2,8_6,13,main_judgement,html-slider-response,26,411834,-0.19266354139973121
prolific-pilot0,60315645c8c7420a2f1ade9c,60b00ca80823a5b18e199fbd,Remove the lipoprotein - dependent metabolites of diphosphophosphate dehydrogenase 1 and dehydrogenase 3 : 6 from the muscle.,1,10537.999999999534,-24.04638,long,low,bert,late,69859,3,0_1995,5,main_judgement,html-slider-response,20,495801,-1.1480101191702687
prolific-pilot0,5b146e7bc85dc40001624518,60b00da7acb548e4edabd880,"They're here, Dagmar told herself, as the gondola quailed.",100,8187.095000059344,-8.773005,medium,low,bert,late,18923,2,9_995,20,main_judgement,html-slider-response,9,279796,0.7575883870487802
prolific-pilot0,60315645c8c7420a2f1ade9c,60b00ca80823a5b18e199fbd,There are several veterinarians in the area.,94,6652.000000000058,-3.1767848,short,low,bert,late,19959,3,0_1995,5,main_judgement,html-slider-response,21,502453,0.6665913941387873
prolific-pilot0,5ff78204dfb1e6464cbf5137,60b00b73563ab42a7d67140d,"He saw it, just as he saw the way her ni**les tightened, her eyes large and unconcerned, almost as if she was about to orgasm.",10,29132.10000000149,-16.371243,long,low,bert,late,34859,2,9_995,30,main_judgement,html-slider-response,23,853853,-1.0531655777533961
prolific-pilot0,60315645c8c7420a2f1ade9c,60b00ca80823a5b18e199fbd,The winner is announced at the end of December.,90,7232,-7.765819072723389,short,high,wiki,wiki,0,2,0_0,5,main_judgement,html-slider-response,22,509685,0.5550704004425643
prolific-pilot0,5b146e7bc85dc40001624518,60b00da7acb548e4edabd880,"She has always dreamed of writing poetry, and she began singing and acting in her teenage years.",100,9744.214999955148,-10.015329,medium,high,bert,early,8,9,2_0,20,main_judgement,html-slider-response,10,289544,0.7575883870487802
prolific-pilot0,5de4467a7d441742885750dc,60b00cdf6074bf3cfa9d3677,"""Forty six days,"" Chyna said at last. ""You hailey ASAP?"" Forty six days? Chyna? ""How about forty-six days?""",50,13123.90000000596,-30.53846,long,high,bert,late,69509,5,4_1985,13,main_judgement,html-slider-response,28,430064,0.19650635946898615
prolific-pilot0,6047f75e14a2a910b2074fd0,60b00da07aa70dea4eaacd0a,"""Couple pricks"" was released as a separate single, ""nothin' but love"".",46,23625.199999999255,-30.670435,medium,low,bert,late,37923,4,9_1995,19,main_judgement,html-slider-response,15,304264,-0.22110234046705746
prolific-pilot0,5de4467a7d441742885750dc,60b00cdf6074bf3cfa9d3677,Publications (and work) play an important role in the scientific school abroad (ESEA).,12,7518.320000730455,-44.22538,medium,high,bert,late,18163,8,7_955,13,main_judgement,html-slider-response,29,437590,-1.0258031798850553
prolific-pilot0,60315645c8c7420a2f1ade9c,60b00ca80823a5b18e199fbd,"She has always dreamed of writing plays, and she began writing and acting in her teenage years.",95,14646.999999999942,-7.552017,medium,high,bert,early,2,9,2_0,5,main_judgement,html-slider-response,23,524332,0.7831393381002155
prolific-pilot0,5b146e7bc85dc40001624518,60b00da7acb548e4edabd880,"When Martin returned to the United States for World War II [1943 - 47], McClintock flew the Douglas B-25 Mitchell (""the Corvette leader"").",100,16436.47499999497,-33.876984,long,low,bert,late,69859,2,2_1995,20,main_judgement,html-slider-response,11,305983,0.6974796870722958
prolific-pilot0,5de4467a7d441742885750dc,60b00cdf6074bf3cfa9d3677,The Hats reluctantly agreed at the expense of leaving the lost and pleading their lost behalf with them.,60,9454.33499943465,-62.56494,medium,low,bert,early,16,1,7_0,13,main_judgement,html-slider-response,30,447051,0.9737319524797227
prolific-pilot0,6047f75e14a2a910b2074fd0,60b00da07aa70dea4eaacd0a,"Beginning in 1904, the Deering Coal Mine Company took Franklin County and West Frankfort from no coal production in 1900 to being the #1 coal producer in Illinois by 1917.",65,21734.300000000745,-63.546234130859375,long,high,wiki,wiki,0,46,0_0,19,main_judgement,html-slider-response,16,326000,0.17236330979338774
prolific-pilot0,5ff78204dfb1e6464cbf5137,60b00b73563ab42a7d67140d,"Prorectors of education, minimizing the strain on young people acting on taboo topics.",66,39590.10000000149,-32.20597,medium,low,bert,late,37923,0,9_1995,30,main_judgement,html-slider-response,24,893445,0.058678535013836686
prolific-pilot0,5b146e7bc85dc40001624518,60b00da7acb548e4edabd880,This country is in an undeclared and unexplained war in Vietnam.,100,17341.514999978244,-22.017675399780277,medium,high,wiki,wiki,0,35,0_0,20,main_judgement,html-slider-response,12,323328,0.7575883870487802
prolific-pilot0,60315645c8c7420a2f1ade9c,60b00ca80823a5b18e199fbd,"Despite its high cover price, the book has been a million-seller, and soon its second edition will be published less than a year after it first appeared in bookstores.",89,21583.999999999767,-26.89027,long,high,bert,early,2,9,3_0,5,main_judgement,html-slider-response,24,545916,1.0626001759497234
prolific-pilot0,60315645c8c7420a2f1ade9c,60b00ca80823a5b18e199fbd,He is considered one of the middle representatives of the Nouveauisme movement on a national level.,89,8151.000000000815,-31.85976,medium,low,bert,early,256,4,0_13,5,main_judgement,html-slider-response,25,554067,0.6428755760524157
prolific-pilot0,5ff78204dfb1e6464cbf5137,60b00b73563ab42a7d67140d,"While him away, they are heartbroken, and when Rahul turns to Sonees, he ferrets out Sonees' true identity upon learning who Rahul is.",29,9924.199999999255,-29.195675,long,low,bert,late,67234,3,5_1920,30,main_judgement,html-slider-response,25,903371,-0.56378700765603
prolific-pilot0,6047f75e14a2a910b2074fd0,60b00da07aa70dea4eaacd0a,"It is free to designate individuals involved in the patrol system, with the exception of misdemeanors committed by the city of Las Vegas, which has its own representatives.",44,17885.199999999255,-36.607304,long,high,bert,early,32,6,6_0,19,main_judgement,html-slider-response,17,343887,-0.6549805772148733
prolific-pilot0,5b146e7bc85dc40001624518,60b00da7acb548e4edabd880,"The colony activity is established at the resting sites, but slows down when the adults emerge.",99,17955.044999951497,-29.972427,medium,high,bert,early,64,6,5_3,20,main_judgement,html-slider-response,13,341286,0.7310337425542869
prolific-pilot0,6047f75e14a2a910b2074fd0,60b00da07aa70dea4eaacd0a,But I've never seen Catherine wear that.,86,7005.39999999851,-26.56792,short,low,bert,late,9959,2,1_995,19,main_judgement,html-slider-response,19,357323,1.1859416896634167
prolific-pilot0,5ff78204dfb1e6464cbf5137,60b00b73563ab42a7d67140d,He was also one of the principal participants in the modern moderate freedom movement on a wider scale.,83,16332,-32.086617,medium,low,bert,early,128,4,5_6,30,main_judgement,html-slider-response,26,919705,0.6571995921549691
prolific-pilot0,60315645c8c7420a2f1ade9c,60b00ca80823a5b18e199fbd,"Morris' great strength was probably the painting of over 40 numbered canvases of historical and historical events, a field from which he operated virtually unchallenged until 1951.",52,21744.999999999884,-94.68483,long,low,bert,early,16,4,5_0,5,main_judgement,html-slider-response,26,575812,0.13313902913790857
prolific-pilot0,6047f75e14a2a910b2074fd0,60b00da07aa70dea4eaacd0a,A delivery girl with a Ted-friendly takeoff.,16,7063.39999999851,-44.164436,short,high,bert,late,14959,8,5_1495,19,main_judgement,html-slider-response,20,364388,-0.9366244026319028
prolific-pilot0,5ff78204dfb1e6464cbf5137,60b00b73563ab42a7d67140d,"She wanted to run, but she felt sick.",100,7366.300000000745,-6.3972516,short,low,bert,late,9509,1,2_950,30,main_judgement,html-slider-response,27,927073,1.173049019183351
prolific-pilot0,5b146e7bc85dc40001624518,60b00da7acb548e4edabd880,On 12 September 2013 she was sentenced to 5 years imprisonment for things such as extortion.,48,20691.98999996297,-21.28528,medium,high,bert,late,18638,5,4_980,20,main_judgement,html-slider-response,14,361981,-0.6232531266648728
prolific-pilot0,60315645c8c7420a2f1ade9c,60b00ca80823a5b18e199fbd,"""When I was six, Bishop gave me a boost and I captained all our flights. """,1,13385.999999999534,-46.402138,medium,high,bert,late,37828,5,1_1990,5,main_judgement,html-slider-response,27,589198,-1.4143262673153145
prolific-pilot0,5ff78204dfb1e6464cbf5137,60b00b73563ab42a7d67140d,"She initially only dreamed of writing songs, but she began singing and acting in her teenage years.",74,14666.199999999255,-8.281181,medium,high,bert,early,32,9,0_1,30,main_judgement,html-slider-response,28,941741,0.34033550308025196
prolific-pilot0,6047f75e14a2a910b2074fd0,60b00da07aa70dea4eaacd0a,"It was later occupied by a senior citizens apartment complex, then declared a heritage building in 1982 and redeveloped as an office building by its owner, the Burns Lake Native Development Corporation.",94,17629.300000000745,-58.1245231628418,long,high,wiki,wiki,0,35,0_0,19,main_judgement,html-slider-response,21,382019,1.3148858204238436
prolific-pilot0,5b146e7bc85dc40001624518,60b00da7acb548e4edabd880,It was developed to use paper tape as a medium intended to be made to represent its subject.,16,10692.090000025928,-37.16471,medium,low,bert,early,128,3,0_6,20,main_judgement,html-slider-response,15,372676,-1.4730017504886592
prolific-pilot0,6047f75e14a2a910b2074fd0,60b00da07aa70dea4eaacd0a,It is affiliated to Vidyasagar University.,36,6867.699999999255,-0.3252060711383819,short,high,wiki,wiki,0,7,0_0,19,main_judgement,html-slider-response,22,388889,-0.33017694769038297
prolific-pilot0,60315645c8c7420a2f1ade9c,60b00ca80823a5b18e199fbd,All of the champions have been formally excommunicated upon their election (see below).,50,11985.000000000582,-15.068661,medium,low,bert,late,28233,4,4_1485,5,main_judgement,html-slider-response,28,601183,-0.2688388772582829
prolific-pilot0,6047f75e14a2a910b2074fd0,60b00da07aa70dea4eaacd0a,Hit send again and reached for the stop light.,12,6801.699999999255,-17.081772,short,low,bert,late,14959,1,4_1495,19,main_judgement,html-slider-response,23,395693,-1.0579138936202068
prolific-pilot0,60315645c8c7420a2f1ade9c,60b00ca80823a5b18e199fbd,"and ""in (mame) Ida"" (""in the world"") sung by voice actor Koji Matsumoto and featured at episode ""oh so cute"".",1,10028.999999999534,-49.287178,long,high,bert,late,63209,7,9_1805,5,main_judgement,html-slider-response,29,611244,-1.1480101191702687
prolific-pilot0,5b146e7bc85dc40001624518,60b00da7acb548e4edabd880,Amjad would begin by repeatedly lecture to her.,15,11471.679999958724,-36.313633,short,low,bert,late,18659,1,7_1865,20,main_judgement,html-slider-response,17,390572,-3.8126552869666885
prolific-pilot0,5ff78204dfb1e6464cbf5137,60b00b73563ab42a7d67140d,"Most of all, she had a child alone.",39,17853.39999999851,-11.6306,short,low,bert,late,14959,1,8_1495,30,main_judgement,html-slider-response,30,969347,-0.6990553748040318
prolific-pilot0,6047f75e14a2a910b2074fd0,60b00da07aa70dea4eaacd0a,"Glutamine and Glutamate, during acid build-up, undergo progressive thermogenetic degeneration mediated by hydrogen sulfide and triphosphate.",81,13139.699999999255,-15.026737,long,low,bert,late,48684,2,5_1390,19,main_judgement,html-slider-response,25,414348,0.8027205570377771
prolific-pilot0,5b146e7bc85dc40001624518,60b00da7acb548e4edabd880,"Wide bottom dop ([wide bottom dop]), a common meaning for letting people live, is a term used to describe monosyllables in private dwellings.",50,16114.460000069812,-28.182869,long,high,bert,late,30659,5,1_875,20,main_judgement,html-slider-response,18,406689,-0.700975825854613
prolific-pilot0,60315645c8c7420a2f1ade9c,60b00ca80823a5b18e199fbd,Water park benefits often integrate both north and south.,97,9663.000000000466,-30.714622,short,low,bert,early,16,4,6_1,5,main_judgement,html-slider-response,31,629825,0.7502321394109546
prolific-pilot0,5ff78204dfb1e6464cbf5137,60b00b73563ab42a7d67140d,"She had always dreamed of writing plays, and she began writing and acting in her teenage years.",81,13873.199999999255,-7.577793,medium,high,bert,early,1,9,1_0,30,main_judgement,html-slider-response,31,983222,0.5867853501383653
prolific-pilot0,6047f75e14a2a910b2074fd0,60b00da07aa70dea4eaacd0a,He is also one of the few outsiders of the Pakistani gender political system on a theoretical level.,32,12021.60000000149,-46.798492,medium,low,bert,early,16,4,2_0,19,main_judgement,html-slider-response,26,426372,-0.8689836171844816
prolific-pilot0,60315645c8c7420a2f1ade9c,60b00ca80823a5b18e199fbd,Glaucodon Elegans is a brown storm petrel native to the Tasman.,1,8455,-7.296653,medium,low,bert,late,28423,4,2_1495,5,main_judgement,html-slider-response,32,638280,-1.4143262673153145
prolific-pilot0,5b146e7bc85dc40001624518,60b00da7acb548e4edabd880,"However, in the tenth and final round, Prescott was knocked down and then hurt by a series of punches from Alvarado, which forced the referee to stop the fight.",100,13850.925000035204,-26.27457,long,high,bert,early,2,8,0_0,20,main_judgement,html-slider-response,20,428114,0.6974796870722958
prolific-pilot0,5ff78204dfb1e6464cbf5137,60b00b73563ab42a7d67140d,"The brain waves are received with the enclosed EEG headset, which allows the user to control an air stream with their concentration, thus lifting or lowering the delicate foam ball.",93,22712.10000000149,-107.337814,long,low,bert,early,0,3,6_0,30,main_judgement,html-slider-response,32,1005936,1.0846460705666772
prolific-pilot0,5b146e7bc85dc40001624518,60b00da7acb548e4edabd880,Over the centuries they both began to crumble.,100,7382.6549999648705,-9.936221,short,low,bert,late,14959,4,9_1495,20,main_judgement,html-slider-response,21,435501,0.32966568270764607
prolific-pilot0,6047f75e14a2a910b2074fd0,60b00da07aa70dea4eaacd0a,"Honored by the Japanese Olympic Committee, Tan came fourth in the 2004 summer olympics in Sendai-Ku, Japan, and has won two Olympic swimming titles in swimming and diving.",47,22979,-39.05242,long,low,bert,late,52009,0,1_1485,19,main_judgement,html-slider-response,27,449353,-0.5367885933565504
prolific-pilot0,5b146e7bc85dc40001624518,60b00da7acb548e4edabd880,"""I had no idea,"" I said.",99,6215.1750000193715,-4.221541,short,high,bert,late,9859,5,3_985,20,main_judgement,html-slider-response,22,441719,0.28093249482912447
prolific-pilot0,6047f75e14a2a910b2074fd0,60b00da07aa70dea4eaacd0a,Then Kevin would figure she'd be relaxed and had had more fun than she should have.,41,9448,-35.52574,medium,low,bert,late,37828,1,2_1990,19,main_judgement,html-slider-response,28,458803,-0.45248851072328033
prolific-pilot0,5ff78204dfb1e6464cbf5137,60b00b73563ab42a7d67140d,"She also hosted the last Japanese Christian retreat in San Francisco, an educational program hosted in Japan.",30,16413.199999999255,-33.786232,medium,low,bert,early,64,0,2_3,30,main_judgement,html-slider-response,33,1022351,-1.208777821285032
prolific-pilot0,5b146e7bc85dc40001624518,60b00da7acb548e4edabd880,His third marriage was to Maria Einoder Berg.,95,10782.585000037216,-24.61942,short,low,bert,early,512,0,9_51,20,main_judgement,html-slider-response,23,452504,0.08599974331503812
prolific-pilot0,6047f75e14a2a910b2074fd0,60b00da07aa70dea4eaacd0a,His chorus identity is even named Quaxo.,8,5371.800000000745,-50.097836,short,low,bert,early,1,0,9_0,19,main_judgement,html-slider-response,29,464177,-1.1792033846085108
prolific-pilot0,5b146e7bc85dc40001624518,60b00da7acb548e4edabd880,"After scoring two goals in 15 Development Squad appearances during the 2015–16 season, Senior departed Brentford on 28 June 2016, having made just one first team appearance at Griffin Park.",20,19171.410000068136,-67.62406921386719,long,low,wiki,wiki,0,6,0_0,20,main_judgement,html-slider-response,24,471679,-1.5400491336107582
prolific-pilot0,6047f75e14a2a910b2074fd0,60b00da07aa70dea4eaacd0a,This company purchased all the gold-bearing lands in the valley and began drilling artesian wells.,35,27210,-16.138569,medium,high,bert,early,0,5,2_0,19,main_judgement,html-slider-response,30,491388,-0.7301519150307478
prolific-pilot0,6047f75e14a2a910b2074fd0,60b00da07aa70dea4eaacd0a,I was going to throw on some clothes later.,99,6244,-5.3169127,short,low,bert,late,9959,2,4_995,19,main_judgement,html-slider-response,31,497634,1.5801325353754048
prolific-pilot0,5b146e7bc85dc40001624518,60b00da7acb548e4edabd880,"Consisting of 15 songs, the album includes the lead single ""Hard 2 Face Reality"" which is a collaboration with pop singer Justin Bieber and hip hop artist Jay Electronica.",94,22568.760000052862,-48.774696350097656,long,high,wiki,wiki,0,31,0_0,20,main_judgement,html-slider-response,25,494250,0.5296650255210666
prolific-pilot0,6047f75e14a2a910b2074fd0,60b00da07aa70dea4eaacd0a,"Giffard is married to Kathleen Bowden, a veterinarian and parasitologist.",91,7517.29999999702,-9.383748,medium,low,bert,late,37923,0,1_1995,19,main_judgement,html-slider-response,32,505155,1.8613731918389484
prolific-pilot0,5b146e7bc85dc40001624518,60b00da7acb548e4edabd880,The accused drew salary for 10 years due to lack of efficiency in incompetent authorities.,12,26783.3849999588,-41.67146682739258,medium,low,wiki,wiki,0,43,0_0,20,main_judgement,html-slider-response,26,521037,-1.5792203284666324
prolific-pilot0,5b146e7bc85dc40001624518,60b00da7acb548e4edabd880,She grew up with four brothers and two sisters.,100,7345.259999972768,-3.9985151,short,high,bert,early,32,8,3_3,20,main_judgement,html-slider-response,27,528385,0.32966568270764607
prolific-pilot0,5fd3ff4e11fcbb148ca92fa3,60b00f63a1487f9634ad0370,Mass production of Latvian euros began in July 2013.,100,3687.4749999988126,-37.12205,short,low,bert,early,2,3,2_0,30,main_judgement,html-slider-response,5,93763,0.8144003784993997
prolific-pilot0,5b146e7bc85dc40001624518,60b00da7acb548e4edabd880,"General William Creighton and others pursued some training at fine arts colleges, including West Virginia college of Frederick William (now Virginia Tech) and the University of California, Davis.",98,11800.70500005968,-50.51641,long,high,bert,late,34684,7,8_990,20,main_judgement,html-slider-response,28,540188,0.6415414665552194
prolific-pilot0,5fd3ff4e11fcbb148ca92fa3,60b00f63a1487f9634ad0370,"While him away, they are heartbroken, and when Rahul turns to Sonees, he ferrets out Sonees' true identity upon learning who Rahul is.",50,11372.029999998631,-29.195675,long,low,bert,late,67234,3,5_1920,30,main_judgement,html-slider-response,6,105138,-1.0706044598626594
prolific-pilot0,5b146e7bc85dc40001624518,60b00da7acb548e4edabd880,"It is used to house officers arrested outside the patrol car, with the exception of misdemeanors committed in the city of Las Vegas, which has its own unit.",3,9546.659999992698,-31.756752,long,high,bert,early,16,6,2_0,20,main_judgement,html-slider-response,29,549738,-2.015524008005907
prolific-pilot0,5fd3ff4e11fcbb148ca92fa3,60b00f63a1487f9634ad0370,"In 1993, Cunliffe was once again elected to the Knesset for the socialist party.",100,8331.810000003316,-9.952836,medium,low,bert,late,20158,0,4_1060,30,main_judgement,html-slider-response,7,113471,0.821491293827445
prolific-pilot0,5fd3ff4e11fcbb148ca92fa3,60b00f63a1487f9634ad0370,"She wanted to run, but she felt sick.",100,5474.554999993416,-6.3972516,short,low,bert,late,9509,1,2_950,30,main_judgement,html-slider-response,8,118948,0.8144003784993997
prolific-pilot0,5b146e7bc85dc40001624518,60b00da7acb548e4edabd880,Many of them are now listed by Historic England.,86,13851.650000084192,-9.13577938079834,short,high,wiki,wiki,0,11,0_0,20,main_judgement,html-slider-response,30,563593,-0.3525989475916561
prolific-pilot0,5fd3ff4e11fcbb148ca92fa3,60b00f63a1487f9634ad0370,Jack and Eric team up to disrupt the party.,91,7081.910000008065,-19.97682380676269,short,high,wiki,wiki,0,25,0_0,30,main_judgement,html-slider-response,9,126032,0.5610313718551421
prolific-pilot0,5fd3ff4e11fcbb148ca92fa3,60b00f63a1487f9634ad0370,"Flying through the dusky sky over Bourbon Street, as I strolled along casually, were fast, sweeping brown bats: An homage, maybe, to the business of interviewing vampires?",88,20120.0300000055,-99.17877960205078,long,low,wiki,wiki,0,40,0_0,30,main_judgement,html-slider-response,10,146154,0.26639453696113113
prolific-pilot0,5fd3ff4e11fcbb148ca92fa3,60b00f63a1487f9634ad0370,"She also hosted the last Japanese Christian retreat in San Francisco, an educational program hosted in Japan.",100,4777.0500000042375,-33.786232,medium,low,bert,early,64,0,2_3,30,main_judgement,html-slider-response,11,150934,0.821491293827445
prolific-pilot0,5fd3ff4e11fcbb148ca92fa3,60b00f63a1487f9634ad0370,"Prorectors of education, minimizing the strain on young people acting on taboo topics.",55,5526.734999992186,-32.20597,medium,low,bert,late,37923,0,9_1995,30,main_judgement,html-slider-response,13,159797,-0.19478659544362098
prolific-pilot0,5fd3ff4e11fcbb148ca92fa3,60b00f63a1487f9634ad0370,"By the 1940s the AM conversion industry had abandoned the Blaw-Knox design for a modern type, spherical, shaped cross section survey mast, which had a ring radiation pattern.",85,9980.755000011413,-122.32341,long,low,bert,early,8,0,0_0,30,main_judgement,html-slider-response,14,169779,0.16084198458030555
prolific-pilot0,5fd3ff4e11fcbb148ca92fa3,60b00f63a1487f9634ad0370,"""I promise!"" Lilly Ann screeched, as she threw herself off the bench.",100,5777.344999994966,-14.552634,medium,low,bert,late,28423,2,3_1495,30,main_judgement,html-slider-response,15,175559,0.821491293827445
prolific-pilot0,5fd3ff4e11fcbb148ca92fa3,60b00f63a1487f9634ad0370,A number of established groups are performed in london.,50,6266.224999999395,-29.706923,short,high,bert,early,256,9,4_25,30,main_judgement,html-slider-response,16,181827,-0.5932052139686984
prolific-pilot0,5fd3ff4e11fcbb148ca92fa3,60b00f63a1487f9634ad0370,He was also one of the principal participants in the modern moderate freedom movement on a wider scale.,100,5773.280000008526,-32.086617,medium,low,bert,early,128,4,5_6,30,main_judgement,html-slider-response,17,187603,0.821491293827445
prolific-pilot0,5fd3ff4e11fcbb148ca92fa3,60b00f63a1487f9634ad0370,The length of the forewings is about 28mm.,100,3470.41999999783,-5.218719,short,high,bert,late,9959,7,2_995,30,main_judgement,html-slider-response,18,191075,0.8144003784993997
prolific-pilot0,5fd3ff4e11fcbb148ca92fa3,60b00f63a1487f9634ad0370,"These live sounds are amplified through an integrated ekg headset, which allows a user to monitor the airflow at one face, by stretching and vibrating the falling via lines.",100,4942.699999999604,-103.09307,long,low,bert,early,32,3,0_0,30,main_judgement,html-slider-response,19,196020,0.6886047464844334
prolific-pilot0,5fd3ff4e11fcbb148ca92fa3,60b00f63a1487f9634ad0370,"By the 1940s the AM broadcasting industry had adopted the Wardley-Parsons design for their new type yard CFL, two cross rotating airborne masts which had a different radiation pattern.",100,8060.480000000098,-118.386536,long,low,bert,early,16,0,9_0,30,main_judgement,html-slider-response,20,204082,0.6886047464844334
prolific-pilot0,5fd3ff4e11fcbb148ca92fa3,60b00f63a1487f9634ad0370,Alikampet's mother is Joy Rose.,100,3158.500000005006,-40.232235,short,low,bert,early,0,2,3_0,30,main_judgement,html-slider-response,21,207243,0.8144003784993997
prolific-pilot0,5fd3ff4e11fcbb148ca92fa3,60b00f63a1487f9634ad0370,What is known as the Vergata-Dewitt order was intended to prevent unreasonable behavior.,100,14415.754999994533,-30.834879,medium,low,bert,early,512,3,3_26,30,main_judgement,html-slider-response,22,221660,0.821491293827445
prolific-pilot0,5fd3ff4e11fcbb148ca92fa3,60b00f63a1487f9634ad0370,It also includes Amanila and Palqa.,29,5974.4100000098115,-27.883465,short,low,bert,late,9759,4,2_975,30,main_judgement,html-slider-response,23,227636,-1.1843995628052997
prolific-pilot0,5fd3ff4e11fcbb148ca92fa3,60b00f63a1487f9634ad0370,"The brain waves are received with the enclosed EEG headset, which allows the user to control an air stream with their concentration, thus lifting or lowering the delicate foam ball.",98,8752.185000004829,-107.337814,long,low,bert,early,0,3,6_0,30,main_judgement,html-slider-response,24,236391,0.6182363782305497
prolific-pilot0,5fd3ff4e11fcbb148ca92fa3,60b00f63a1487f9634ad0370,"She initially only dreamed of writing songs, but she began singing and acting in her teenage years.",100,4257.045000005746,-8.281181,medium,high,bert,early,32,9,0_1,30,main_judgement,html-slider-response,25,240650,0.821491293827445
prolific-pilot0,5fd3ff4e11fcbb148ca92fa3,60b00f63a1487f9634ad0370,And then he knew to a kid named Kavi who had befriended him but never acknowledged him.,0,9526.235000012093,-42.856804,medium,high,bert,late,36308,6,6_1910,30,main_judgement,html-slider-response,26,250178,-1.4369040156638127
prolific-pilot0,605d0def15da9eebd8273d64,60b03c3bb328cfbc2f633099,"By lunchtime the cobbled landscape was largely cleared, save for the remnants of a crumbling pair of bridges crossing over its sheer stone cliff, which was a long way down.",15,44678.000000000015,-39.475536,long,low,bert,early,512,0,3_14,12,main_judgement,html-slider-response,4,70888,NA
prolific-pilot0,5f2e1693bc8cdf17f3ec9cfb,60b03ded34e04fb23b100464,"She has always dreamed of writing plays, and she began writing and acting in her teenage years.",21,26345,-7.5520167,medium,high,bert,early,4,9,3_0,14,main_judgement,html-slider-response,4,188809,-0.6555707269528512
prolific-pilot0,5f2e1693bc8cdf17f3ec9cfb,60b03ded34e04fb23b100464,"Hispanics were counted as whites in 1940, but for the first time ever, the U.S. made an attempt to measure the size of the Hispanic population that year.",1,17671,-22.05521583557129,long,high,wiki,wiki,0,44,0_0,14,main_judgement,html-slider-response,5,206490,-0.900577064318869
prolific-pilot0,5f2e1693bc8cdf17f3ec9cfb,60b03ded34e04fb23b100464,"Formed within of the body of the crykrii, the subcentrum is officially considered a flowering species but adults experience rudimentary canopy and attached on fovea.",100,40770,-116.646324,long,low,bert,late,34509,0,8_985,14,main_judgement,html-slider-response,6,247273,0.9189561880804786
prolific-pilot0,5f2e1693bc8cdf17f3ec9cfb,60b03ded34e04fb23b100464,Also had several PT-17 Stearmans and a few P-40 Warhawks assigned.,100,28046,-22.236553192138672,medium,high,wiki,wiki,0,16,0_0,14,main_judgement,html-slider-response,7,275331,1.2051509770929658
prolific-pilot0,5f2e1693bc8cdf17f3ec9cfb,60b03ded34e04fb23b100464,It supplements its diet with occasional insects and fruit.,50,19687,-11.840860366821287,short,high,wiki,wiki,0,49,0_0,14,main_judgement,html-slider-response,8,295030,0.1528670172593455
prolific-pilot0,5f2e1693bc8cdf17f3ec9cfb,60b03ded34e04fb23b100464,"A capping of cream-coloured weathered latite, still retaining the characteristic porphyritic texture, may be studied at the top of the northern and western quarry faces.",0,27269,-72.80538940429686,long,low,wiki,wiki,0,30,0_0,14,main_judgement,html-slider-response,9,322309,-0.9189561880804786
prolific-pilot0,5f2e1693bc8cdf17f3ec9cfb,60b03ded34e04fb23b100464,The growth rate is increased in the breeding season and then slows down as the plants flower.,0,20883,-19.778612,medium,high,bert,early,16,6,2_0,14,main_judgement,html-slider-response,10,343204,-1.1501929520789544
prolific-pilot0,5f2e1693bc8cdf17f3ec9cfb,60b03ded34e04fb23b100464,The Augustinian Rule was adopted in 1429.,100,8690,-21.81005096435547,short,high,wiki,wiki,0,38,0_0,14,main_judgement,html-slider-response,11,351905,1.2675223514420735
prolific-pilot0,5f2e1693bc8cdf17f3ec9cfb,60b03ded34e04fb23b100464,At the 2016 census it was in Berkeley electorate.,51,26073,-14.70581,short,low,bert,late,19959,2,5_1995,14,main_judgement,html-slider-response,12,377986,0.17516012394300007
prolific-pilot0,5f2e1693bc8cdf17f3ec9cfb,60b03ded34e04fb23b100464,Leamington Spa Society; Swinton Chelmsford ; and Hempstead County Board of Health donate Swinton Hospital is the only Swinton voluntary hospital in Swinton.,0,19870,-49.861557,long,low,bert,late,34859,3,8_995,14,main_judgement,html-slider-response,13,397867,-0.9189561880804786
prolific-pilot0,5f2e1693bc8cdf17f3ec9cfb,60b03ded34e04fb23b100464,But damned if he wasn't just drunk.,100,5297,-10.543959,short,high,bert,late,18959,7,8_1895,14,main_judgement,html-slider-response,14,403174,1.2675223514420735
prolific-pilot0,5f2e1693bc8cdf17f3ec9cfb,60b03ded34e04fb23b100464,The company bought out other coal-bearing minerals in the area and began drilling artesian wells.,100,9766,-13.530231,medium,high,bert,early,32,5,5_1,14,main_judgement,html-slider-response,15,412949,1.2051509770929658
prolific-pilot0,5f2e1693bc8cdf17f3ec9cfb,60b03ded34e04fb23b100464,"Extremely low temperatures are useful for observation of quantum mechanical phases of matter such as superfluids and Bose–Einstein condensates, which would be disrupted by thermal motion.",99,16884,-74.68006134033203,long,low,wiki,wiki,0,28,0_0,14,main_judgement,html-slider-response,16,429844,0.900577064318869
prolific-pilot0,5f2e1693bc8cdf17f3ec9cfb,60b03ded34e04fb23b100464,A total of 16 teams were invited to participate.,1,23677,-5.408518,short,high,bert,early,2,9,0_0,14,main_judgement,html-slider-response,17,453532,-0.939495210239728
prolific-pilot0,5f2e1693bc8cdf17f3ec9cfb,60b03ded34e04fb23b100464,"During the steep conditions and non-stop meetings, a well-known motorcyclist rides Beau and his friends as the race is called ""the untouchable"".",100,29387,-56.839127,long,high,bert,late,52359,6,6_1495,14,main_judgement,html-slider-response,19,491307,0.9189561880804786
prolific-pilot0,5f2e1693bc8cdf17f3ec9cfb,60b03ded34e04fb23b100464,He was selected to the 2010 Russian Olympic team.,0,7899,-10.442167282104492,short,high,wiki,wiki,0,13,0_0,14,main_judgement,html-slider-response,20,499215,-0.9617883169233826
prolific-pilot0,5f2e1693bc8cdf17f3ec9cfb,60b03ded34e04fb23b100464,Wabbowiel attended the Alnavel Alnwick school (also county school).,48,14665,-47.79676,medium,high,bert,late,28423,8,2_1495,14,main_judgement,html-slider-response,21,513891,-0.019627866076432725
prolific-pilot0,5f2e1693bc8cdf17f3ec9cfb,60b03ded34e04fb23b100464,About 170 campers are comedy writers each week.,0,13618,-31.710377,short,high,bert,early,4,6,4_0,14,main_judgement,html-slider-response,22,527519,-0.9617883169233826
prolific-pilot0,5f2e1693bc8cdf17f3ec9cfb,60b03ded34e04fb23b100464,The locations mentioned in these inscriptions have been identified with areas around present-day Jodhpur.,24,12782,-12.163686752319336,medium,high,wiki,wiki,0,37,0_0,14,main_judgement,html-slider-response,23,540311,-0.5849104090776936
prolific-pilot0,5bb1c7db70f8df0001bee965,60b03fbf172d25ecb87ce562,Having a cleft palate/lip does not inevitably lead to a psychosocial problem.,98,19949,-20.01488494873047,medium,high,wiki,wiki,0,40,0_0,17,main_judgement,html-slider-response,4,155386,0.8391254558250589
prolific-pilot0,5bb1c7db70f8df0001bee965,60b03fbf172d25ecb87ce562,"It is used to house inmates arrested in their patrol area, with the exception of misdemeanors committed in the city of Las Vegas, which maintains its own jail.",99,31476,-38.518387,long,high,bert,early,0,6,0_0,17,main_judgement,html-slider-response,5,186869,1.1615458416541253
prolific-pilot0,5bb1c7db70f8df0001bee965,60b03fbf172d25ecb87ce562,"He has also commented on scuba diving, and has been quoted about it in many later interviews.",48,53625,-17.479568,medium,high,bert,early,128,9,9_6,17,main_judgement,html-slider-response,6,240503,-0.5308752883791189
prolific-pilot0,5bb1c7db70f8df0001bee965,60b03fbf172d25ecb87ce562,Lake Superior has fewer dissolved nutrients compared to its water volume than the other great lakes and so is less productive in terms of fish populations and thus an oligotrophic lake.,12,40455,-36.93097,long,high,bert,early,1,7,2_0,17,main_judgement,html-slider-response,7,280976,-0.7012097016437346
prolific-pilot0,5bb1c7db70f8df0001bee965,60b03fbf172d25ecb87ce562,"Salisbury's great contribution was usually his painting of over forty large canvases of historical and contemporary events, a field in which he was virtually unchallenged until 1951.",95,24784,-99.871216,long,low,bert,early,2,4,1_0,17,main_judgement,html-slider-response,8,305769,1.0759019086289363
prolific-pilot0,5bb1c7db70f8df0001bee965,60b03fbf172d25ecb87ce562,Orwell fell seriously ill in March 1929 and shortly afterwards had money stolen from the lodging house.,49,31334,-32.30157470703125,medium,high,wiki,wiki,0,3,0_0,17,main_judgement,html-slider-response,9,337110,-0.5034752734950354
prolific-pilot0,5bb1c7db70f8df0001bee965,60b03fbf172d25ecb87ce562,"""Krelis,"" she managed to croak out, her voice barely audible.",95,10190,-0.24828081,medium,high,bert,late,37923,6,0_1995,17,main_judgement,html-slider-response,10,347306,0.7569254111728083
prolific-pilot0,5bb1c7db70f8df0001bee965,60b03fbf172d25ecb87ce562,"Millwall Carlisle Rangers Maine Road Wedgwood St Johnstone Brechin City boardman joined Leyton Orient from Meadowbank for an undisclosed fee, subsequently leaving after one year.",0,29851,-31.963766,long,low,bert,late,52359,4,2_1495,17,main_judgement,html-slider-response,11,377163,-0.9581415007193016
prolific-pilot0,5bb1c7db70f8df0001bee965,60b03fbf172d25ecb87ce562,"In 921, the monastic brotherhood founded the Ruskin gothic church in Torgau, Hungary.",100,24874,-52.531536,medium,low,bert,late,28328,4,3_1490,17,main_judgement,html-slider-response,12,402044,0.893925485593226
prolific-pilot0,5bb1c7db70f8df0001bee965,60b03fbf172d25ecb87ce562,"Breaux opened two American-style studios in San Francisco in 1870, complementing one another.",48,26600,-26.889185,medium,low,bert,early,128,0,6_6,17,main_judgement,html-slider-response,13,428651,-0.5308752883791189
prolific-pilot0,5bb1c7db70f8df0001bee965,60b03fbf172d25ecb87ce562,It is found in Central America and North America.,100,10875,-0.0069783507,short,low,bert,late,19959,3,2_1995,17,main_judgement,html-slider-response,14,439531,0.3955964808650452
